trial_index,cat_no,wordnet_id,imagenet_label,label_1,label_2,seed,base_position,image_number,alpha,correct_key,user_key,eval,rt,time_elapsed,subject_id,date
1,960,n07836838,chocolate_sauce,food,food,1,r,200,0.25,f,f,1,2069.4000000003725,38401,5eee7d94e6ca673243259416,2022-03-28 11:21:49
2,945,n07720875,bell_pepper,vegetable,food,0,l,0,-0.25,f,f,1,1482.7000000001863,39884,5eee7d94e6ca673243259416,2022-03-28 11:21:49
3,231,n02106030,collie,dog,animal,2,r,180,0.2,f,f,1,1035.9000000003725,40921,5eee7d94e6ca673243259416,2022-03-28 11:21:49
4,871,n04483307,trimaran,boat,vehicle,1,l,106,0.015,j,f,0,839.2999999998137,41761,5eee7d94e6ca673243259416,2022-03-28 11:21:49
5,108,n01914609,sea_anemone,coral,animal,0,l,99,-0.0025,f,j,0,339.40000000037253,42101,5eee7d94e6ca673243259416,2022-03-28 11:21:49
6,497,n03028079,church,building,outdoor,2,l,160,0.15,j,f,0,279.59999999962747,42381,5eee7d94e6ca673243259416,2022-03-28 11:21:49
7,567,n03400231,frying_pan,cooking,food,2,l,101,0.0025,j,j,1,191.5,42573,5eee7d94e6ca673243259416,2022-03-28 11:21:49
8,325,n02281406,sulphur_butterfly,butterfly,animal,0,l,102,0.005,j,f,0,167.40000000037253,42741,5eee7d94e6ca673243259416,2022-03-28 11:21:49
9,949,n07745940,strawberry,fruit,food,1,r,140,0.1,f,j,0,123.5,42865,5eee7d94e6ca673243259416,2022-03-28 11:21:49
10,905,n04590129,window_shade,decor,indoor,0,r,40,-0.15,j,f,0,119.79999999981374,42985,5eee7d94e6ca673243259416,2022-03-28 11:21:49
11,559,n03376595,folding_chair,furniture,indoor,1,l,70,-0.075,f,f,1,251.79999999981374,43237,5eee7d94e6ca673243259416,2022-03-28 11:21:49
12,195,n02096585,Boston_bull,dog,animal,0,l,0,-0.25,f,j,0,239.59999999962747,43477,5eee7d94e6ca673243259416,2022-03-28 11:21:49
13,498,n03032252,cinema,building,outdoor,1,r,0,-0.25,j,f,0,143.5,43621,5eee7d94e6ca673243259416,2022-03-28 11:21:49
14,994,n13040303,stinkhorn,fungus,nature,1,r,0,-0.25,j,f,0,207.5,43829,5eee7d94e6ca673243259416,2022-03-28 11:21:49
15,405,n02692877,airship,aircraft,vehicle,1,r,160,0.15,f,f,1,196.20000000018626,44025,5eee7d94e6ca673243259416,2022-03-28 11:21:49
16,402,n02676566,acoustic_guitar,instrument,tool,2,l,40,-0.15,f,j,0,111.29999999981374,44137,5eee7d94e6ca673243259416,2022-03-28 11:21:49
17,980,n09472597,volcano,outdoor scene,nature,0,r,110,0.025,f,f,1,231.79999999981374,44369,5eee7d94e6ca673243259416,2022-03-28 11:21:49
18,954,n07753592,banana,fruit,food,1,l,160,0.15,j,f,0,199.79999999981374,44569,5eee7d94e6ca673243259416,2022-03-28 11:21:49
19,352,n02422699,impala,ungulate,animal,0,r,130,0.075,f,j,0,155.40000000037253,44725,5eee7d94e6ca673243259416,2022-03-28 11:21:49
20,991,n12985857,coral_fungus,coral,nature,0,r,160,0.15,f,f,1,163.3999999994412,44888,5eee7d94e6ca673243259416,2022-03-28 11:21:49
21,63,n01748264,Indian_cobra,snake,animal,2,l,130,0.075,j,f,0,144.79999999981374,45034,5eee7d94e6ca673243259416,2022-03-28 11:21:49
22,28,n01632458,spotted_salamander,salamander,animal,1,r,70,-0.075,j,j,1,174.69999999925494,45209,5eee7d94e6ca673243259416,2022-03-28 11:21:49
23,963,n07873807,pizza,food,food,2,l,110,0.025,j,j,1,183.40000000037253,45393,5eee7d94e6ca673243259416,2022-03-28 11:21:49
24,503,n03062245,cocktail_shaker,cooking,food,1,r,60,-0.1,j,j,1,151.90000000037253,45545,5eee7d94e6ca673243259416,2022-03-28 11:21:49
25,803,n04252225,snowplow,vehicle,vehicle,1,r,101,0.0025,f,f,1,28.700000000186265,45574,5eee7d94e6ca673243259416,2022-03-28 11:21:49
26,971,n09229709,bubble,other,nature,1,r,120,0.05,f,f,1,198.3999999994412,45773,5eee7d94e6ca673243259416,2022-03-28 11:21:49
27,807,n04258138,solar_dish,technology,tool,2,r,140,0.1,f,j,0,95.29999999981374,45868,5eee7d94e6ca673243259416,2022-03-28 11:21:49
28,713,n03924679,photocopier,electronics,tool,1,r,106,0.015,f,f,1,167.70000000018626,46037,5eee7d94e6ca673243259416,2022-03-28 11:21:49
29,649,n03743016,megalith,outdoor scene,outdoor,1,l,110,0.025,j,j,1,160.5,46198,5eee7d94e6ca673243259416,2022-03-28 11:21:49
30,321,n02276258,admiral,butterfly,animal,2,l,0,-0.25,f,f,1,23.600000000558794,46222,5eee7d94e6ca673243259416,2022-03-28 11:21:49
31,471,n02950826,cannon,weapon,tool,2,r,60,-0.1,j,f,0,227.79999999981374,46450,5eee7d94e6ca673243259416,2022-03-28 11:21:49
32,475,n02965783,car_mirror,technology,tool,2,r,98,-0.005,j,j,1,179.59999999962747,46630,5eee7d94e6ca673243259416,2022-03-28 11:21:49
33,557,n03355925,flagpole,outdoor scene,outdoor,1,r,130,0.075,f,f,1,71.5,46702,5eee7d94e6ca673243259416,2022-03-28 11:21:49
34,165,n02089078,black-and-tan_coonhound,dog,animal,2,r,180,0.2,f,f,1,203.5,46905,5eee7d94e6ca673243259416,2022-03-28 11:21:49
35,349,n02415577,bighorn,ungulate,animal,2,r,120,0.05,f,j,0,147.70000000018626,47054,5eee7d94e6ca673243259416,2022-03-28 11:21:49
36,998,n13133613,ear,food,food,0,r,98,-0.005,j,f,0,59.59999999962747,47114,5eee7d94e6ca673243259416,2022-03-28 11:21:49
37,594,n03495258,harp,instrument,tool,2,l,99,-0.0025,f,j,0,167.90000000037253,47282,5eee7d94e6ca673243259416,2022-03-28 11:21:49
38,499,n03041632,cleaver,cooking,food,1,l,120,0.05,j,f,0,35.299999999813735,47318,5eee7d94e6ca673243259416,2022-03-28 11:21:49
39,409,n02708093,analog_clock,decor,indoor,0,r,0,-0.25,j,f,0,195.79999999981374,47514,5eee7d94e6ca673243259416,2022-03-28 11:21:49
40,928,n07614500,ice_cream,food,food,1,r,0,-0.25,j,j,1,23.40000000037253,47538,5eee7d94e6ca673243259416,2022-03-28 11:21:49
41,541,n03249569,drum,instrument,tool,2,l,130,0.075,j,f,0,175.70000000018626,47713,5eee7d94e6ca673243259416,2022-03-28 11:21:49
42,466,n02917067,bullet_train,train,vehicle,1,r,0,-0.25,j,j,1,131.6000000005588,47846,5eee7d94e6ca673243259416,2022-03-28 11:21:49
43,398,n02666196,abacus,technology,tool,2,l,70,-0.075,f,f,1,91.79999999981374,47938,5eee7d94e6ca673243259416,2022-03-28 11:21:49
44,987,n12144580,corn,food,food,0,l,120,0.05,j,f,0,163.3999999994412,48101,5eee7d94e6ca673243259416,2022-03-28 11:21:49
45,581,n03459775,grille,vehicle,vehicle,0,l,90,-0.025,f,j,0,139.70000000018626,48241,5eee7d94e6ca673243259416,2022-03-28 11:21:49
46,390,n02526121,eel,fish,animal,1,l,40,-0.15,f,f,1,163.6000000005588,48406,5eee7d94e6ca673243259416,2022-03-28 11:21:49
47,2,n01484850,great_white_shark,shark,animal,2,r,60,-0.1,j,f,0,195.8999999994412,48602,5eee7d94e6ca673243259416,2022-03-28 11:21:49
48,932,n07695742,pretzel,food,food,2,l,98,-0.005,f,j,0,103.0,48705,5eee7d94e6ca673243259416,2022-03-28 11:21:49
49,21,n01608432,kite,bird,animal,0,l,0,-0.25,f,f,1,139.8999999994412,48846,5eee7d94e6ca673243259416,2022-03-28 11:21:49
50,707,n03902125,pay-phone,electronics,tool,2,l,20,-0.2,f,j,0,211.59999999962747,49058,5eee7d94e6ca673243259416,2022-03-28 11:21:49
51,491,n03000684,chain_saw,tool,tool,0,l,99,-0.0025,f,f,1,63.700000000186265,49122,5eee7d94e6ca673243259416,2022-03-28 11:21:49
52,473,n02951585,can_opener,tool,tool,2,l,94,-0.015,f,f,1,207.6000000005588,49330,5eee7d94e6ca673243259416,2022-03-28 11:21:49
53,827,n04330267,stove,furniture,indoor,1,r,98,-0.005,j,j,1,0.0,49330,5eee7d94e6ca673243259416,2022-03-28 11:21:49
54,935,n07711569,mashed_potato,food,food,1,l,70,-0.075,f,f,1,235.79999999981374,49567,5eee7d94e6ca673243259416,2022-03-28 11:21:49
55,468,n02930766,cab,vehicle,vehicle,2,l,101,0.0025,j,j,1,139.29999999981374,49707,5eee7d94e6ca673243259416,2022-03-28 11:21:49
56,331,n02326432,hare,rabbit,animal,2,l,20,-0.2,f,f,1,171.5,49878,5eee7d94e6ca673243259416,2022-03-28 11:21:49
57,336,n02361337,marmot,rodent,animal,2,l,20,-0.2,f,f,1,163.70000000018626,50043,5eee7d94e6ca673243259416,2022-03-28 11:21:49
58,364,n02457408,three-toed_sloth,sloth,animal,2,l,110,0.025,j,j,1,115.5,50159,5eee7d94e6ca673243259416,2022-03-28 11:21:49
59,207,n02099601,golden_retriever,dog,animal,1,r,40,-0.15,j,f,0,183.6000000005588,50343,5eee7d94e6ca673243259416,2022-03-28 11:21:49
60,181,n02093647,Bedlington_terrier,dog,animal,1,l,110,0.025,j,f,0,175.59999999962747,50519,5eee7d94e6ca673243259416,2022-03-28 11:21:49
61,732,n03976467,Polaroid_camera,electronics,tool,0,r,110,0.025,f,j,0,123.5,50643,5eee7d94e6ca673243259416,2022-03-28 11:21:49
62,392,n02606052,rock_beauty,coral,animal,1,r,140,0.1,f,f,1,179.3999999994412,50822,5eee7d94e6ca673243259416,2022-03-28 11:21:49
63,80,n01795545,black_grouse,bird,animal,2,l,140,0.1,j,f,0,167.6000000005588,50990,5eee7d94e6ca673243259416,2022-03-28 11:21:49
64,100,n01860187,black_swan,bird,animal,1,l,98,-0.005,f,j,0,111.5,51102,5eee7d94e6ca673243259416,2022-03-28 11:21:49
65,328,n02319095,sea_urchin,echinoderms,animal,1,l,99,-0.0025,f,f,1,163.90000000037253,51266,5eee7d94e6ca673243259416,2022-03-28 11:21:49
66,997,n13054560,bolete,fungus,nature,1,l,102,0.005,j,f,0,163.80000000074506,51431,5eee7d94e6ca673243259416,2022-03-28 11:21:49
67,608,n03594734,jean,clothing,clothing,2,r,60,-0.1,j,j,1,151.3999999994412,51582,5eee7d94e6ca673243259416,2022-03-28 11:21:49
68,306,n02174001,rhinoceros_beetle,bug,animal,0,l,120,0.05,j,f,0,175.79999999981374,51759,5eee7d94e6ca673243259416,2022-03-28 11:21:49
69,621,n03649909,lawn_mower,vehicle,vehicle,1,r,94,-0.015,j,f,0,159.79999999981374,51919,5eee7d94e6ca673243259416,2022-03-28 11:21:49
70,852,n04409515,tennis_ball,ball,tool,2,r,140,0.1,f,j,0,135.5,52055,5eee7d94e6ca673243259416,2022-03-28 11:21:49
71,425,n02793495,barn,building,outdoor,2,r,98,-0.005,j,f,0,159.40000000037253,52214,5eee7d94e6ca673243259416,2022-03-28 11:21:49
72,947,n07734744,mushroom,fungus,nature,2,r,0,-0.25,j,f,0,187.79999999981374,52403,5eee7d94e6ca673243259416,2022-03-28 11:21:49
73,965,n07880968,burrito,food,food,1,r,140,0.1,f,j,0,127.70000000018626,52531,5eee7d94e6ca673243259416,2022-03-28 11:21:49
74,492,n03014705,chest,container,indoor,0,l,120,0.05,j,f,0,151.29999999981374,52683,5eee7d94e6ca673243259416,2022-03-28 11:21:49
75,714,n03929660,pick,instrument,tool,0,r,140,0.1,f,f,1,191.5,52874,5eee7d94e6ca673243259416,2022-03-28 11:21:49
76,757,n04065272,recreational_vehicle,vehicle,vehicle,2,r,94,-0.015,j,j,1,151.70000000018626,53027,5eee7d94e6ca673243259416,2022-03-28 11:21:49
77,624,n03661043,library,building,outdoor,2,l,110,0.025,j,f,0,135.3999999994412,53162,5eee7d94e6ca673243259416,2022-03-28 11:21:49
78,919,n06794110,street_sign,outdoor scene,outdoor,0,r,90,-0.025,j,f,0,167.59999999962747,53330,5eee7d94e6ca673243259416,2022-03-28 11:21:49
79,958,n07802026,hay,other,nature,0,l,110,0.025,j,j,1,140.0,53471,5eee7d94e6ca673243259416,2022-03-28 11:21:49
80,534,n03207941,dishwasher,electronics,tool,2,l,80,-0.05,f,f,1,67.5,53539,5eee7d94e6ca673243259416,2022-03-28 11:21:49
81,462,n02906734,broom,tool,tool,1,r,140,0.1,f,f,1,179.70000000018626,53719,5eee7d94e6ca673243259416,2022-03-28 11:21:49
82,482,n02979186,cassette_player,electronics,tool,0,l,20,-0.2,f,j,0,91.20000000018626,53810,5eee7d94e6ca673243259416,2022-03-28 11:21:49
83,760,n04070727,refrigerator,furniture,indoor,0,r,70,-0.075,j,f,0,95.6000000005588,53906,5eee7d94e6ca673243259416,2022-03-28 11:21:49
84,292,n02129604,tiger,wild cat,animal,1,r,94,-0.015,j,j,1,91.80000000074506,53998,5eee7d94e6ca673243259416,2022-03-28 11:21:49
85,617,n03630383,lab_coat,clothing,clothing,2,r,180,0.2,f,f,1,83.79999999981374,54082,5eee7d94e6ca673243259416,2022-03-28 11:21:49
86,990,n12768682,buckeye,plant,nature,1,l,110,0.025,j,j,1,167.90000000037253,54251,5eee7d94e6ca673243259416,2022-03-28 11:21:49
87,805,n04254680,soccer_ball,ball,tool,0,r,90,-0.025,j,f,0,215.69999999925494,54467,5eee7d94e6ca673243259416,2022-03-28 11:21:49
88,611,n03598930,jigsaw_puzzle,paper,tool,2,l,160,0.15,j,j,1,79.40000000037253,54546,5eee7d94e6ca673243259416,2022-03-28 11:21:49
89,844,n04372370,switch,electronics,tool,2,l,160,0.15,j,f,0,111.5,54658,5eee7d94e6ca673243259416,2022-03-28 11:21:49
90,896,n04553703,washbasin,container,indoor,2,r,180,0.2,f,j,0,72.29999999981374,54731,5eee7d94e6ca673243259416,2022-03-28 11:21:49
91,660,n03776460,mobile_home,building,outdoor,1,l,102,0.005,j,f,0,123.29999999981374,54855,5eee7d94e6ca673243259416,2022-03-28 11:21:49
92,270,n02114548,white_wolf,wild dog,animal,2,l,98,-0.005,f,j,0,55.700000000186265,54911,5eee7d94e6ca673243259416,2022-03-28 11:21:49
93,532,n03201208,dining_table,furniture,indoor,2,r,40,-0.15,j,f,0,111.40000000037253,55023,5eee7d94e6ca673243259416,2022-03-28 11:21:49
94,746,n04019541,puck,sports equipment,tool,0,l,99,-0.0025,f,j,0,55.59999999962747,55079,5eee7d94e6ca673243259416,2022-03-28 11:21:49
95,32,n01644900,tailed_frog,frog,animal,1,l,160,0.15,j,f,0,119.69999999925494,55199,5eee7d94e6ca673243259416,2022-03-28 11:21:49
96,148,n02071294,killer_whale,marine mammals,animal,1,r,99,-0.0025,j,j,1,43.59999999962747,55243,5eee7d94e6ca673243259416,2022-03-28 11:21:49
97,11,n01531178,goldfinch,bird,animal,2,r,120,0.05,f,f,1,127.59999999962747,55371,5eee7d94e6ca673243259416,2022-03-28 11:21:49
98,730,n03967562,plow,vehicle,vehicle,0,r,110,0.025,f,j,0,39.5,55411,5eee7d94e6ca673243259416,2022-03-28 11:21:49
99,574,n03445777,golf_ball,ball,tool,2,r,200,0.25,f,f,1,151.79999999981374,55563,5eee7d94e6ca673243259416,2022-03-28 11:21:49
100,970,n09193705,alp,outdoor scene,nature,1,r,101,0.0025,f,j,0,67.09999999962747,55631,5eee7d94e6ca673243259416,2022-03-28 11:21:49
101,930,n07684084,French_loaf,food,food,1,r,140,0.1,f,f,1,151.59999999962747,55783,5eee7d94e6ca673243259416,2022-03-28 11:21:49
102,693,n03873416,paddle,sports equipment,tool,1,l,94,-0.015,f,j,0,187.5,55971,5eee7d94e6ca673243259416,2022-03-28 11:21:49
103,97,n01847000,drake,bird,animal,1,r,40,-0.15,j,f,0,171.5,56143,5eee7d94e6ca673243259416,2022-03-28 11:21:49
104,508,n03085013,computer_keyboard,electronics,tool,1,r,60,-0.1,j,f,0,195.40000000037253,56339,5eee7d94e6ca673243259416,2022-03-28 11:21:49
105,431,n02804414,bassinet,furniture,indoor,2,l,140,0.1,j,j,1,123.59999999962747,56463,5eee7d94e6ca673243259416,2022-03-28 11:21:49
106,403,n02687172,aircraft_carrier,boat,vehicle,1,r,98,-0.005,j,f,0,147.29999999981374,56610,5eee7d94e6ca673243259416,2022-03-28 11:21:49
107,375,n02488702,colobus,primate,animal,1,l,60,-0.1,f,f,1,159.70000000018626,56771,5eee7d94e6ca673243259416,2022-03-28 11:21:49
108,500,n03042490,cliff_dwelling,building,outdoor,1,r,200,0.25,f,j,0,143.29999999981374,56914,5eee7d94e6ca673243259416,2022-03-28 11:21:49
109,612,n03599486,jinrikisha,vehicle,vehicle,0,l,200,0.25,j,f,0,127.59999999962747,57042,5eee7d94e6ca673243259416,2022-03-28 11:21:49
110,381,n02493793,spider_monkey,primate,animal,1,l,160,0.15,j,f,0,183.70000000018626,57226,5eee7d94e6ca673243259416,2022-03-28 11:21:49
111,814,n04273569,speedboat,boat,vehicle,0,l,106,0.015,j,j,1,111.70000000018626,57338,5eee7d94e6ca673243259416,2022-03-28 11:21:49
112,363,n02454379,armadillo,armadillo,animal,2,r,200,0.25,f,f,1,131.70000000018626,57470,5eee7d94e6ca673243259416,2022-03-28 11:21:49
113,964,n07875152,potpie,food,food,1,r,140,0.1,f,f,1,167.59999999962747,57638,5eee7d94e6ca673243259416,2022-03-28 11:21:49
114,966,n07892512,red_wine,food,food,1,r,160,0.15,f,j,0,147.79999999981374,57787,5eee7d94e6ca673243259416,2022-03-28 11:21:49
115,412,n02747177,ashcan,furniture,indoor,0,l,200,0.25,j,f,0,79.40000000037253,57866,5eee7d94e6ca673243259416,2022-03-28 11:21:49
116,514,n03124043,cowboy_boot,clothing,clothing,0,l,160,0.15,j,f,0,172.09999999962747,58039,5eee7d94e6ca673243259416,2022-03-28 11:21:49
117,476,n02966193,carousel,building,outdoor,2,r,60,-0.1,j,j,1,155.20000000018626,58194,5eee7d94e6ca673243259416,2022-03-28 11:21:49
118,525,n03160309,dam,outdoor scene,outdoor,0,l,60,-0.1,f,f,1,127.59999999962747,58322,5eee7d94e6ca673243259416,2022-03-28 11:21:49
119,481,n02978881,cassette,technology,tool,1,r,80,-0.05,j,f,0,183.8999999994412,58507,5eee7d94e6ca673243259416,2022-03-28 11:21:49
120,591,n03485794,handkerchief,accessory,clothing,0,r,40,-0.15,j,j,1,139.6000000005588,58647,5eee7d94e6ca673243259416,2022-03-28 11:21:49
121,437,n02814860,beacon,building,outdoor,1,l,40,-0.15,f,f,1,103.5,58751,5eee7d94e6ca673243259416,2022-03-28 11:21:49
122,738,n03991062,pot,cooking,food,1,r,140,0.1,f,f,1,191.6000000005588,58943,5eee7d94e6ca673243259416,2022-03-28 11:21:49
123,853,n04417672,thatch,building,outdoor,0,r,80,-0.05,j,f,0,200.30000000074506,59144,5eee7d94e6ca673243259416,2022-03-28 11:21:49
124,957,n07768694,pomegranate,fruit,food,2,r,110,0.025,f,j,0,15.799999999813735,59160,5eee7d94e6ca673243259416,2022-03-28 11:21:49
125,869,n04479046,trench_coat,clothing,clothing,2,r,101,0.0025,f,f,1,187.40000000037253,59348,5eee7d94e6ca673243259416,2022-03-28 11:21:49
126,509,n03089624,confectionery,building,outdoor,1,r,102,0.005,f,f,1,207.69999999925494,59556,5eee7d94e6ca673243259416,2022-03-28 11:21:49
127,15,n01558993,robin,bird,animal,2,l,99,-0.0025,f,j,0,63.59999999962747,59620,5eee7d94e6ca673243259416,2022-03-28 11:21:49
128,22,n01614925,bald_eagle,bird,animal,0,l,20,-0.2,f,f,1,127.40000000037253,59748,5eee7d94e6ca673243259416,2022-03-28 11:21:49
129,901,n04579145,whiskey_jug,container,indoor,2,r,130,0.075,f,j,0,35.799999999813735,59784,5eee7d94e6ca673243259416,2022-03-28 11:21:49
130,661,n03777568,Model_T,vehicle,vehicle,2,r,60,-0.1,j,f,0,139.5,59924,5eee7d94e6ca673243259416,2022-03-28 11:21:49
131,977,n09421951,sandbar,outdoor scene,nature,0,r,98,-0.005,j,f,0,343.5,60268,5eee7d94e6ca673243259416,2022-03-28 11:21:49
132,650,n03759954,microphone,electronics,tool,2,l,98,-0.005,f,j,0,15.5,60284,5eee7d94e6ca673243259416,2022-03-28 11:21:49
133,962,n07871810,meat_loaf,food,food,2,r,106,0.015,f,f,1,187.70000000018626,60472,5eee7d94e6ca673243259416,2022-03-28 11:21:49
134,278,n02119789,kit_fox,wild dog,animal,0,l,180,0.2,j,j,1,59.799999999813735,60532,5eee7d94e6ca673243259416,2022-03-28 11:21:49
135,343,n02397096,warthog,hog,animal,2,l,110,0.025,j,f,0,135.20000000018626,60668,5eee7d94e6ca673243259416,2022-03-28 11:21:49
136,888,n04532670,viaduct,outdoor scene,outdoor,2,l,180,0.2,j,j,1,19.799999999813735,60688,5eee7d94e6ca673243259416,2022-03-28 11:21:49
137,924,n07583066,guacamole,food,food,2,r,130,0.075,f,f,1,163.5,60852,5eee7d94e6ca673243259416,2022-03-28 11:21:49
138,756,n04049303,rain_barrel,container,indoor,0,l,0,-0.25,f,j,0,7.400000000372529,60860,5eee7d94e6ca673243259416,2022-03-28 11:21:49
139,973,n09256479,coral_reef,coral,nature,2,l,80,-0.05,f,f,1,175.59999999962747,61036,5eee7d94e6ca673243259416,2022-03-28 11:21:49
140,883,n04522168,vase,decor,indoor,2,r,80,-0.05,j,j,1,7.599999999627471,61044,5eee7d94e6ca673243259416,2022-03-28 11:21:49
141,526,n03179701,desk,furniture,indoor,0,l,120,0.05,j,f,0,167.5,61212,5eee7d94e6ca673243259416,2022-03-28 11:21:49
142,940,n07716906,spaghetti_squash,fruit,food,0,r,70,-0.075,j,j,1,7.7999999998137355,61220,5eee7d94e6ca673243259416,2022-03-28 11:21:49
143,665,n03785016,moped,vehicle,vehicle,1,r,60,-0.1,j,f,0,159.20000000018626,61379,5eee7d94e6ca673243259416,2022-03-28 11:21:49
144,815,n04275548,spider_web,outdoor scene,nature,1,l,99,-0.0025,f,j,0,7.7999999998137355,61388,5eee7d94e6ca673243259416,2022-03-28 11:21:49
145,802,n04252077,snowmobile,vehicle,vehicle,1,r,101,0.0025,f,f,1,168.09999999962747,61556,5eee7d94e6ca673243259416,2022-03-28 11:21:49
146,809,n04263257,soup_bowl,cooking,food,2,l,160,0.15,j,j,1,0.09999999962747097,61557,5eee7d94e6ca673243259416,2022-03-28 11:21:49
147,51,n01704323,triceratops,dinosaur,animal,1,l,60,-0.1,f,f,1,178.59999999962747,61736,5eee7d94e6ca673243259416,2022-03-28 11:21:49
148,992,n12998815,agaric,fungus,nature,0,l,200,0.25,j,j,1,23.5,61760,5eee7d94e6ca673243259416,2022-03-28 11:21:49
149,985,n11939491,daisy,flower,nature,1,l,180,0.2,j,f,0,159.5,61919,5eee7d94e6ca673243259416,2022-03-28 11:21:49
150,379,n02492660,howler_monkey,primate,animal,1,r,70,-0.075,j,j,1,23.799999999813735,61944,5eee7d94e6ca673243259416,2022-03-28 11:21:49
151,837,n04356056,sunglasses,clothing,clothing,1,l,140,0.1,j,f,0,147.8999999994412,62092,5eee7d94e6ca673243259416,2022-03-28 11:21:49
152,7,n01514668,cock,bird,animal,0,r,110,0.025,f,j,0,23.600000000558794,62116,5eee7d94e6ca673243259416,2022-03-28 11:21:49
153,393,n02607072,anemone_fish,fish,animal,0,l,102,0.005,j,f,0,175.20000000018626,62291,5eee7d94e6ca673243259416,2022-03-28 11:21:49
154,833,n04347754,submarine,boat,vehicle,2,r,106,0.015,f,j,0,3.6000000005587935,62296,5eee7d94e6ca673243259416,2022-03-28 11:21:49
155,488,n02999410,chain,tool,tool,0,l,60,-0.1,f,f,1,175.6000000005588,62472,5eee7d94e6ca673243259416,2022-03-28 11:21:49
156,904,n04589890,window_screen,decor,indoor,2,l,160,0.15,j,j,1,3.5,62476,5eee7d94e6ca673243259416,2022-03-28 11:21:49
157,480,n02977058,cash_machine,technology,tool,2,l,160,0.15,j,f,0,151.90000000037253,62628,5eee7d94e6ca673243259416,2022-03-28 11:21:49
158,136,n02017213,European_gallinule,bird,animal,1,l,0,-0.25,f,j,0,23.90000000037253,62652,5eee7d94e6ca673243259416,2022-03-28 11:21:49
159,356,n02441942,weasel,ferret,animal,1,l,60,-0.1,f,f,1,148.5,62801,5eee7d94e6ca673243259416,2022-03-28 11:21:49
160,590,n03485407,hand-held_computer,electronics,tool,2,l,106,0.015,j,j,1,27.600000000558794,62829,5eee7d94e6ca673243259416,2022-03-28 11:21:49
161,907,n04591713,wine_bottle,food,food,1,l,98,-0.005,f,f,1,131.29999999981374,62960,5eee7d94e6ca673243259416,2022-03-28 11:21:49
162,580,n03457902,greenhouse,building,outdoor,2,r,20,-0.2,j,j,1,167.90000000037253,63129,5eee7d94e6ca673243259416,2022-03-28 11:21:49
163,698,n03877845,palace,building,outdoor,0,l,160,0.15,j,f,0,11.5,63141,5eee7d94e6ca673243259416,2022-03-28 11:21:49
164,717,n03930630,pickup,vehicle,vehicle,1,l,101,0.0025,j,j,1,159.3999999994412,63300,5eee7d94e6ca673243259416,2022-03-28 11:21:49
165,711,n03916031,perfume,other,tool,0,r,130,0.075,f,f,1,3.7000000001862645,63305,5eee7d94e6ca673243259416,2022-03-28 11:21:49
166,952,n07753113,fig,fruit,food,1,r,40,-0.15,j,f,0,151.70000000018626,63457,5eee7d94e6ca673243259416,2022-03-28 11:21:49
167,826,n04328186,stopwatch,electronics,tool,0,r,110,0.025,f,j,0,3.5,63461,5eee7d94e6ca673243259416,2022-03-28 11:21:49
168,647,n03733805,measuring_cup,cooking,food,2,l,99,-0.0025,f,f,1,155.5,63616,5eee7d94e6ca673243259416,2022-03-28 11:21:49
169,301,n02165456,ladybug,bug,animal,0,l,98,-0.005,f,j,0,15.700000000186265,63633,5eee7d94e6ca673243259416,2022-03-28 11:21:49
170,192,n02096177,cairn,dog,animal,2,r,80,-0.05,j,j,1,135.5,63769,5eee7d94e6ca673243259416,2022-03-28 11:21:49
171,682,n03837869,obelisk,building,outdoor,2,l,20,-0.2,f,f,1,22.90000000037253,63793,5eee7d94e6ca673243259416,2022-03-28 11:21:49
172,125,n01986214,hermit_crab,crustacean,animal,2,r,80,-0.05,j,j,1,155.3999999994412,63948,5eee7d94e6ca673243259416,2022-03-28 11:21:49
173,806,n04254777,sock,clothing,clothing,0,l,70,-0.075,f,f,1,19.600000000558794,63969,5eee7d94e6ca673243259416,2022-03-28 11:21:49
174,703,n03891251,park_bench,furniture,indoor,0,l,98,-0.005,f,j,0,143.70000000018626,64113,5eee7d94e6ca673243259416,2022-03-28 11:21:49
175,544,n03259280,Dutch_oven,cooking,food,0,l,140,0.1,j,f,0,27.600000000558794,64141,5eee7d94e6ca673243259416,2022-03-28 11:21:49
176,39,n01677366,common_iguana,lizard,animal,0,r,180,0.2,f,j,0,127.70000000018626,64268,5eee7d94e6ca673243259416,2022-03-28 11:21:49
177,347,n02410509,bison,ungulate,animal,0,l,200,0.25,j,f,0,48.0,64317,5eee7d94e6ca673243259416,2022-03-28 11:21:49
178,277,n02119022,red_fox,wild dog,animal,1,r,98,-0.005,j,j,1,115.20000000018626,64432,5eee7d94e6ca673243259416,2022-03-28 11:21:49
179,694,n03874293,paddlewheel,boat,vehicle,2,l,180,0.2,j,f,0,68.0,64501,5eee7d94e6ca673243259416,2022-03-28 11:21:49
180,688,n03857828,oscilloscope,electronics,tool,0,r,0,-0.25,j,j,1,95.30000000074506,64596,5eee7d94e6ca673243259416,2022-03-28 11:21:49
181,404,n02690373,airliner,aircraft,vehicle,0,r,98,-0.005,j,f,0,103.6000000005588,64700,5eee7d94e6ca673243259416,2022-03-28 11:21:49
182,961,n07860988,dough,food,food,0,r,130,0.075,f,j,0,71.79999999981374,64773,5eee7d94e6ca673243259416,2022-03-28 11:21:49
183,687,n03854065,organ,instrument,tool,1,r,102,0.005,f,f,1,127.5,64900,5eee7d94e6ca673243259416,2022-03-28 11:21:49
184,415,n02776631,bakery,building,outdoor,2,l,0,-0.25,f,j,0,71.90000000037253,64973,5eee7d94e6ca673243259416,2022-03-28 11:21:49
185,478,n02971356,carton,container,indoor,2,r,180,0.2,f,f,1,127.59999999962747,65101,5eee7d94e6ca673243259416,2022-03-28 11:21:49
186,25,n01629819,European_fire_salamander,salamander,animal,2,r,120,0.05,f,j,0,51.60000000055879,65153,5eee7d94e6ca673243259416,2022-03-28 11:21:49
187,723,n03944341,pinwheel,toy,tool,1,l,200,0.25,j,f,0,144.20000000018626,65298,5eee7d94e6ca673243259416,2022-03-28 11:21:49
188,914,n04612504,yawl,boat,vehicle,0,l,120,0.05,j,j,1,55.799999999813735,65354,5eee7d94e6ca673243259416,2022-03-28 11:21:49
189,936,n07714571,head_cabbage,vegetable,food,2,l,94,-0.015,f,f,1,131.5,65486,5eee7d94e6ca673243259416,2022-03-28 11:21:49
190,565,n03393912,freight_car,train,vehicle,2,l,180,0.2,j,j,1,43.700000000186265,65530,5eee7d94e6ca673243259416,2022-03-28 11:21:49
191,600,n03532672,hook,tool,tool,0,l,101,0.0025,j,f,0,151.3999999994412,65682,5eee7d94e6ca673243259416,2022-03-28 11:21:49
192,749,n04033901,quill,tool,tool,0,l,110,0.025,j,j,1,15.5,65698,5eee7d94e6ca673243259416,2022-03-28 11:21:49
193,630,n03680355,Loafer,clothing,clothing,0,r,140,0.1,f,f,1,175.40000000037253,65874,5eee7d94e6ca673243259416,2022-03-28 11:21:49
194,563,n03388183,fountain_pen,tool,tool,1,r,98,-0.005,j,j,1,103.59999999962747,65978,5eee7d94e6ca673243259416,2022-03-28 11:21:49
195,789,n04201297,shoji,furniture,indoor,2,l,0,-0.25,f,f,1,119.69999999925494,66098,5eee7d94e6ca673243259416,2022-03-28 11:21:49
196,469,n02939185,caldron,cooking,food,1,r,99,-0.0025,j,f,0,311.40000000037253,66410,5eee7d94e6ca673243259416,2022-03-28 11:21:49
197,279,n02120079,Arctic_fox,wild dog,animal,1,r,99,-0.0025,j,j,1,95.79999999981374,66506,5eee7d94e6ca673243259416,2022-03-28 11:21:49
198,791,n04204347,shopping_cart,container,indoor,2,r,90,-0.025,j,f,0,151.3999999994412,66658,5eee7d94e6ca673243259416,2022-03-28 11:21:49
199,9,n01518878,ostrich,bird,animal,2,l,120,0.05,j,f,0,207.5,66866,5eee7d94e6ca673243259416,2022-03-28 11:21:49
200,14,n01537544,indigo_bunting,bird,animal,0,r,40,-0.15,j,f,0,203.5,67070,5eee7d94e6ca673243259416,2022-03-28 11:21:49
201,252,n02110627,affenpinscher,dog,animal,0,r,70,-0.075,j,j,1,95.5,67166,5eee7d94e6ca673243259416,2022-03-28 11:21:49
202,923,n07579787,plate,cooking,food,2,l,106,0.015,j,f,0,187.29999999981374,67354,5eee7d94e6ca673243259416,2022-03-28 11:21:49
203,685,n03841143,odometer,electronics,tool,2,l,110,0.025,j,f,0,179.69999999925494,67534,5eee7d94e6ca673243259416,2022-03-28 11:21:49
204,427,n02795169,barrel,container,indoor,0,r,70,-0.075,j,j,1,139.30000000074506,67674,5eee7d94e6ca673243259416,2022-03-28 11:21:49
205,523,n03141823,crutch,tool,tool,0,l,140,0.1,j,f,0,103.5,67777,5eee7d94e6ca673243259416,2022-03-28 11:21:49
206,112,n01943899,conch,mollusk,animal,1,l,130,0.075,j,j,1,147.6000000005588,67925,5eee7d94e6ca673243259416,2022-03-28 11:21:49
207,941,n07717410,acorn_squash,fruit,food,0,l,106,0.015,j,f,0,43.799999999813735,67970,5eee7d94e6ca673243259416,2022-03-28 11:21:49
208,42,n01687978,agama,lizard,animal,2,l,140,0.1,j,j,1,167.79999999981374,68138,5eee7d94e6ca673243259416,2022-03-28 11:21:49
209,362,n02447366,badger,ferret,animal,1,l,180,0.2,j,j,1,232.70000000018626,68371,5eee7d94e6ca673243259416,2022-03-28 11:21:49
210,288,n02128385,leopard,wild cat,animal,1,r,0,-0.25,j,f,0,139.5,68511,5eee7d94e6ca673243259416,2022-03-28 11:21:49
211,766,n04111531,rotisserie,cooking,food,2,r,160,0.15,f,j,0,111.40000000037253,68622,5eee7d94e6ca673243259416,2022-03-28 11:21:49
212,504,n03063599,coffee_mug,cooking,food,2,l,200,0.25,j,f,0,99.79999999981374,68723,5eee7d94e6ca673243259416,2022-03-28 11:21:49
213,748,n04026417,purse,accessory,clothing,2,l,90,-0.025,f,f,1,183.79999999981374,68907,5eee7d94e6ca673243259416,2022-03-28 11:21:49
214,521,n03133878,Crock_Pot,cooking,food,0,l,20,-0.2,f,j,0,179.40000000037253,69087,5eee7d94e6ca673243259416,2022-03-28 11:21:49
215,418,n02783161,ballpoint,tool,tool,2,r,70,-0.075,j,f,0,155.30000000074506,69242,5eee7d94e6ca673243259416,2022-03-28 11:21:49
216,489,n03000134,chainlink_fence,fence,outdoor,1,r,101,0.0025,f,f,1,175.5,69419,5eee7d94e6ca673243259416,2022-03-28 11:21:49
217,37,n01669191,box_turtle,turtle,animal,0,l,40,-0.15,f,j,0,91.69999999925494,69511,5eee7d94e6ca673243259416,2022-03-28 11:21:49
218,646,n03733281,maze,outdoor scene,outdoor,1,r,160,0.15,f,f,1,175.30000000074506,69686,5eee7d94e6ca673243259416,2022-03-28 11:21:49
219,771,n04125021,safe,container,indoor,0,r,94,-0.015,j,f,0,199.79999999981374,69887,5eee7d94e6ca673243259416,2022-03-28 11:21:49
220,194,n02096437,Dandie_Dinmont,dog,animal,0,l,106,0.015,j,f,0,391.40000000037253,70279,5eee7d94e6ca673243259416,2022-03-28 11:21:49
221,727,n03956157,planetarium,building,outdoor,0,l,101,0.0025,j,f,0,327.5,70607,5eee7d94e6ca673243259416,2022-03-28 11:21:49
222,54,n01729322,hognose_snake,snake,animal,1,l,98,-0.005,f,j,0,35.5,70643,5eee7d94e6ca673243259416,2022-03-28 11:21:49
223,460,n02894605,breakwater,outdoor scene,nature,2,r,180,0.2,f,f,1,143.20000000018626,70786,5eee7d94e6ca673243259416,2022-03-28 11:21:49
224,74,n01773797,garden_spider,arachnid,animal,2,r,130,0.075,f,j,0,11.700000000186265,70799,5eee7d94e6ca673243259416,2022-03-28 11:21:49
225,695,n03874599,padlock,technology,tool,1,l,101,0.0025,j,f,0,163.69999999925494,70963,5eee7d94e6ca673243259416,2022-03-28 11:21:49
226,614,n03617480,kimono,clothing,clothing,0,r,180,0.2,f,j,0,11.300000000745058,70975,5eee7d94e6ca673243259416,2022-03-28 11:21:49
227,629,n03676483,lipstick,accessory,clothing,0,r,102,0.005,f,f,1,175.90000000037253,71151,5eee7d94e6ca673243259416,2022-03-28 11:21:49
228,706,n03899768,patio,building,outdoor,0,l,101,0.0025,j,j,1,7.2999999998137355,71159,5eee7d94e6ca673243259416,2022-03-28 11:21:49
229,671,n03792782,mountain_bike,vehicle,vehicle,0,r,102,0.005,f,f,1,303.69999999925494,71463,5eee7d94e6ca673243259416,2022-03-28 11:21:49
230,360,n02444819,otter,ferret,animal,0,r,20,-0.2,j,j,1,207.30000000074506,71670,5eee7d94e6ca673243259416,2022-03-28 11:21:49
231,823,n04317175,stethoscope,tool,tool,0,r,101,0.0025,f,f,1,3.699999999254942,71675,5eee7d94e6ca673243259416,2022-03-28 11:21:49
232,773,n04131690,saltshaker,food,food,1,r,140,0.1,f,j,0,248.5,71924,5eee7d94e6ca673243259416,2022-03-28 11:21:49
233,299,n02138441,meerkat,mongoose,animal,0,l,94,-0.015,f,f,1,15.600000000558794,71940,5eee7d94e6ca673243259416,2022-03-28 11:21:49
234,282,n02123159,tiger_cat,wild cat,animal,1,r,101,0.0025,f,j,0,175.40000000037253,72116,5eee7d94e6ca673243259416,2022-03-28 11:21:49
235,975,n09332890,lakeside,outdoor scene,nature,0,l,80,-0.05,f,f,1,31.299999999813735,72148,5eee7d94e6ca673243259416,2022-03-28 11:21:49
236,449,n02859443,boathouse,building,outdoor,1,r,101,0.0025,f,f,1,143.20000000018626,72291,5eee7d94e6ca673243259416,2022-03-28 11:21:49
237,547,n03272562,electric_locomotive,train,vehicle,0,r,20,-0.2,j,j,1,7.7999999998137355,72300,5eee7d94e6ca673243259416,2022-03-28 11:21:49
238,628,n03673027,liner,boat,vehicle,2,l,0,-0.25,f,f,1,179.30000000074506,72480,5eee7d94e6ca673243259416,2022-03-28 11:21:49
239,989,n12620546,hip,flower,nature,2,r,40,-0.15,j,j,1,11.699999999254942,72492,5eee7d94e6ca673243259416,2022-03-28 11:21:49
240,305,n02172182,dung_beetle,bug,animal,0,l,102,0.005,j,f,0,183.29999999981374,72675,5eee7d94e6ca673243259416,2022-03-28 11:21:49
241,296,n02134084,ice_bear,bear,animal,0,r,60,-0.1,j,j,1,7.6000000005587935,72684,5eee7d94e6ca673243259416,2022-03-28 11:21:49
242,351,n02422106,hartebeest,ungulate,animal,1,l,200,0.25,j,j,1,179.6000000005588,72864,5eee7d94e6ca673243259416,2022-03-28 11:21:49
243,337,n02363005,beaver,rodent,animal,0,r,130,0.075,f,f,1,151.79999999981374,73016,5eee7d94e6ca673243259416,2022-03-28 11:21:49
244,426,n02794156,barometer,technology,tool,1,r,90,-0.025,j,j,1,167.29999999981374,73183,5eee7d94e6ca673243259416,2022-03-28 11:21:49
245,865,n04462240,toyshop,building,outdoor,0,l,101,0.0025,j,f,0,35.799999999813735,73220,5eee7d94e6ca673243259416,2022-03-28 11:21:49
246,458,n02892201,brass,decor,indoor,2,r,99,-0.0025,j,j,1,144.30000000074506,73364,5eee7d94e6ca673243259416,2022-03-28 11:21:49
247,786,n04179913,sewing_machine,technology,tool,0,r,130,0.075,f,f,1,175.8999999994412,73541,5eee7d94e6ca673243259416,2022-03-28 11:21:49
248,755,n04044716,radio_telescope,technology,tool,1,r,106,0.015,f,j,0,183.20000000018626,73724,5eee7d94e6ca673243259416,2022-03-28 11:21:49
249,821,n04311004,steel_arch_bridge,outdoor scene,outdoor,0,l,110,0.025,j,f,0,31.799999999813735,73757,5eee7d94e6ca673243259416,2022-03-28 11:21:49
250,455,n02877765,bottlecap,other,tool,1,r,99,-0.0025,j,j,1,167.30000000074506,73925,5eee7d94e6ca673243259416,2022-03-28 11:21:49
251,931,n07693725,bagel,food,food,2,l,98,-0.005,f,f,1,191.5,74117,5eee7d94e6ca673243259416,2022-03-28 11:21:49
252,477,n02966687,carpenter's_kit,tool,tool,2,r,70,-0.075,j,j,1,39.5,74157,5eee7d94e6ca673243259416,2022-03-28 11:21:49
253,736,n03982430,pool_table,furniture,indoor,0,l,180,0.2,j,f,0,135.40000000037253,74292,5eee7d94e6ca673243259416,2022-03-28 11:21:49
254,111,n01930112,nematode,bug,animal,0,l,102,0.005,j,j,1,151.3999999994412,74444,5eee7d94e6ca673243259416,2022-03-28 11:21:49
255,454,n02871525,bookshop,building,outdoor,2,l,0,-0.25,f,f,1,75.90000000037253,74521,5eee7d94e6ca673243259416,2022-03-28 11:21:49
256,495,n03018349,china_cabinet,furniture,indoor,2,l,140,0.1,j,f,0,103.30000000074506,74624,5eee7d94e6ca673243259416,2022-03-28 11:21:49
257,894,n04550184,wardrobe,furniture,indoor,0,l,140,0.1,j,j,1,63.69999999925494,74689,5eee7d94e6ca673243259416,2022-03-28 11:21:49
258,572,n03443371,goblet,cooking,food,2,l,130,0.075,j,f,0,131.30000000074506,74821,5eee7d94e6ca673243259416,2022-03-28 11:21:49
259,501,n03045698,cloak,clothing,clothing,2,l,130,0.075,j,j,1,147.59999999962747,74969,5eee7d94e6ca673243259416,2022-03-28 11:21:49
260,470,n02948072,candle,tool,tool,1,r,90,-0.025,j,f,0,147.5,75116,5eee7d94e6ca673243259416,2022-03-28 11:21:49
261,371,n02486261,patas,primate,animal,0,l,160,0.15,j,j,1,104.6000000005588,75221,5eee7d94e6ca673243259416,2022-03-28 11:21:49
262,700,n03887697,paper_towel,paper,tool,2,r,90,-0.025,j,f,0,84.0,75306,5eee7d94e6ca673243259416,2022-03-28 11:21:49
263,35,n01667114,mud_turtle,turtle,animal,2,l,99,-0.0025,f,j,0,171.40000000037253,75478,5eee7d94e6ca673243259416,2022-03-28 11:21:49
264,232,n02106166,Border_collie,dog,animal,1,r,180,0.2,f,f,1,223.59999999962747,75702,5eee7d94e6ca673243259416,2022-03-28 11:21:49
265,599,n03530642,honeycomb,other,nature,2,l,200,0.25,j,j,1,3.6000000005587935,75706,5eee7d94e6ca673243259416,2022-03-28 11:21:49
266,250,n02110185,Siberian_husky,dog,animal,2,r,120,0.05,f,f,1,203.5,75910,5eee7d94e6ca673243259416,2022-03-28 11:21:49
267,616,n03627232,knot,other,tool,0,r,180,0.2,f,j,0,0.09999999962747097,75910,5eee7d94e6ca673243259416,2022-03-28 11:21:49
268,839,n04366367,suspension_bridge,outdoor scene,outdoor,1,l,140,0.1,j,j,1,219.09999999962747,76130,5eee7d94e6ca673243259416,2022-03-28 11:21:49
269,909,n04596742,wok,cooking,food,0,l,60,-0.1,f,f,1,199.40000000037253,76329,5eee7d94e6ca673243259416,2022-03-28 11:21:49
270,818,n04286575,spotlight,electronics,tool,0,r,120,0.05,f,j,0,31.799999999813735,76362,5eee7d94e6ca673243259416,2022-03-28 11:21:49
271,679,n03814906,necklace,accessory,clothing,1,r,101,0.0025,f,f,1,179.69999999925494,76542,5eee7d94e6ca673243259416,2022-03-28 11:21:49
272,881,n04515003,upright,instrument,tool,1,l,102,0.005,j,j,1,15.400000000372529,76558,5eee7d94e6ca673243259416,2022-03-28 11:21:49
273,770,n04120489,running_shoe,clothing,clothing,0,r,120,0.05,f,f,1,187.59999999962747,76746,5eee7d94e6ca673243259416,2022-03-28 11:21:49
274,731,n03970156,plunger,tool,tool,0,l,20,-0.2,f,j,0,167.20000000018626,76913,5eee7d94e6ca673243259416,2022-03-28 11:21:49
275,779,n04146614,school_bus,vehicle,vehicle,1,r,120,0.05,f,f,1,195.70000000018626,77110,5eee7d94e6ca673243259416,2022-03-28 11:21:49
276,537,n03218198,dogsled,vehicle,vehicle,2,l,80,-0.05,f,j,0,3.699999999254942,77114,5eee7d94e6ca673243259416,2022-03-28 11:21:49
277,948,n07742313,Granny_Smith,fruit,food,1,l,99,-0.0025,f,f,1,171.40000000037253,77286,5eee7d94e6ca673243259416,2022-03-28 11:21:49
278,440,n02823428,beer_bottle,food,food,0,r,101,0.0025,f,j,0,19.699999999254942,77306,5eee7d94e6ca673243259416,2022-03-28 11:21:49
279,811,n04265275,space_heater,electronics,tool,1,l,101,0.0025,j,f,0,175.30000000074506,77481,5eee7d94e6ca673243259416,2022-03-28 11:21:49
280,294,n02132136,brown_bear,bear,animal,2,r,98,-0.005,j,j,1,147.5,77630,5eee7d94e6ca673243259416,2022-03-28 11:21:49
281,663,n03781244,monastery,building,outdoor,0,r,200,0.25,f,f,1,163.29999999981374,77793,5eee7d94e6ca673243259416,2022-03-28 11:21:49
282,424,n02791270,barbershop,building,outdoor,0,l,120,0.05,j,j,1,99.8999999994412,77894,5eee7d94e6ca673243259416,2022-03-28 11:21:49
283,12,n01532829,house_finch,bird,animal,0,r,140,0.1,f,f,1,119.69999999925494,78014,5eee7d94e6ca673243259416,2022-03-28 11:21:49
284,340,n02391049,zebra,ungulate,animal,0,l,120,0.05,j,j,1,175.5,78190,5eee7d94e6ca673243259416,2022-03-28 11:21:49
285,704,n03891332,parking_meter,electronics,tool,0,r,20,-0.2,j,f,0,7.7000000001862645,78198,5eee7d94e6ca673243259416,2022-03-28 11:21:49
286,386,n02504458,African_elephant,ungulate,animal,2,r,20,-0.2,j,f,0,167.40000000037253,78366,5eee7d94e6ca673243259416,2022-03-28 11:21:49
287,607,n03590841,jack-o'-lantern,fruit,food,2,r,130,0.075,f,f,1,211.5,78578,5eee7d94e6ca673243259416,2022-03-28 11:21:49
288,170,n02090721,Irish_wolfhound,dog,animal,1,r,80,-0.05,j,j,1,163.70000000018626,78742,5eee7d94e6ca673243259416,2022-03-28 11:21:49
289,27,n01631663,eft,salamander,animal,2,r,140,0.1,f,f,1,127.8999999994412,78870,5eee7d94e6ca673243259416,2022-03-28 11:21:49
290,780,n04147183,schooner,boat,vehicle,1,r,40,-0.15,j,j,1,91.79999999981374,78963,5eee7d94e6ca673243259416,2022-03-28 11:21:49
291,438,n02815834,beaker,lab equipment,tool,2,r,106,0.015,f,f,1,135.20000000018626,79098,5eee7d94e6ca673243259416,2022-03-28 11:21:49
292,486,n02992211,cello,instrument,tool,1,l,20,-0.2,f,j,0,124.20000000018626,79223,5eee7d94e6ca673243259416,2022-03-28 11:21:49
293,75,n01774384,black_widow,arachnid,animal,1,r,102,0.005,f,f,1,94.90000000037253,79319,5eee7d94e6ca673243259416,2022-03-28 11:21:49
294,984,n11879895,rapeseed,flower,nature,0,r,102,0.005,f,j,0,147.09999999962747,79466,5eee7d94e6ca673243259416,2022-03-28 11:21:49
295,399,n02667093,abaya,clothing,clothing,0,r,60,-0.1,j,f,0,115.3999999994412,79582,5eee7d94e6ca673243259416,2022-03-28 11:21:49
296,613,n03602883,joystick,electronics,tool,2,r,140,0.1,f,j,0,151.79999999981374,79735,5eee7d94e6ca673243259416,2022-03-28 11:21:49
297,388,n02510455,giant_panda,bear,animal,1,r,98,-0.005,j,f,0,223.20000000018626,79958,5eee7d94e6ca673243259416,2022-03-28 11:21:49
298,742,n04004767,printer,electronics,tool,0,l,200,0.25,j,j,1,195.79999999981374,80155,5eee7d94e6ca673243259416,2022-03-28 11:21:49
299,367,n02481823,chimpanzee,primate,animal,1,r,40,-0.15,j,f,0,159.30000000074506,80315,5eee7d94e6ca673243259416,2022-03-28 11:21:49
300,644,n03729826,matchstick,tool,tool,1,l,140,0.1,j,j,1,39.799999999813735,80355,5eee7d94e6ca673243259416,2022-03-28 11:21:49
301,929,n07615774,ice_lolly,food,food,0,l,120,0.05,j,f,0,175.40000000037253,80531,5eee7d94e6ca673243259416,2022-03-28 11:21:49
302,442,n02825657,bell_cote,building,outdoor,2,l,40,-0.15,f,j,0,11.5,80543,5eee7d94e6ca673243259416,2022-03-28 11:21:49
303,634,n03697007,lumbermill,building,outdoor,1,r,101,0.0025,f,f,1,419.30000000074506,80963,5eee7d94e6ca673243259416,2022-03-28 11:21:49
304,627,n03670208,limousine,vehicle,vehicle,2,l,180,0.2,j,f,0,195.40000000037253,81159,5eee7d94e6ca673243259416,2022-03-28 11:21:49
305,819,n04296562,stage,furniture,indoor,0,l,200,0.25,j,j,1,3.5,81163,5eee7d94e6ca673243259416,2022-03-28 11:21:49
306,795,n04228054,ski,sports equipment,tool,1,l,0,-0.25,f,f,1,159.5,81322,5eee7d94e6ca673243259416,2022-03-28 11:21:49
307,668,n03788195,mosque,building,outdoor,2,l,106,0.015,j,j,1,127.70000000018626,81450,5eee7d94e6ca673243259416,2022-03-28 11:21:49
308,788,n04200800,shoe_shop,building,outdoor,2,l,60,-0.1,f,f,1,76.0,81527,5eee7d94e6ca673243259416,2022-03-28 11:21:49
309,886,n04525305,vending_machine,technology,tool,0,r,80,-0.05,j,f,0,156.0,81684,5eee7d94e6ca673243259416,2022-03-28 11:21:49
310,967,n07920052,espresso,food,food,2,l,60,-0.1,f,j,0,11.5,81696,5eee7d94e6ca673243259416,2022-03-28 11:21:49
311,750,n04033995,quilt,decor,indoor,2,l,200,0.25,j,f,0,151.40000000037253,81848,5eee7d94e6ca673243259416,2022-03-28 11:21:49
312,625,n03662601,lifeboat,boat,vehicle,1,l,200,0.25,j,j,1,67.70000000018626,81916,5eee7d94e6ca673243259416,2022-03-28 11:21:49
313,138,n02018795,bustard,bird,animal,2,l,180,0.2,j,f,0,91.5,82008,5eee7d94e6ca673243259416,2022-03-28 11:21:49
314,604,n03544143,hourglass,technology,tool,2,r,90,-0.025,j,j,1,103.0,82111,5eee7d94e6ca673243259416,2022-03-28 11:21:49
315,635,n03706229,magnetic_compass,tool,tool,0,r,106,0.015,f,j,0,163.3999999994412,82275,5eee7d94e6ca673243259416,2022-03-28 11:21:49
316,642,n03721384,marimba,instrument,tool,0,l,110,0.025,j,f,0,123.5,82399,5eee7d94e6ca673243259416,2022-03-28 11:21:49
317,862,n04456115,torch,tool,tool,2,r,60,-0.1,j,j,1,63.90000000037253,82464,5eee7d94e6ca673243259416,2022-03-28 11:21:49
318,546,n03272010,electric_guitar,instrument,tool,1,l,200,0.25,j,f,0,123.29999999981374,82588,5eee7d94e6ca673243259416,2022-03-28 11:21:49
319,835,n04355338,sundial,outdoor scene,outdoor,1,r,106,0.015,f,j,0,99.40000000037253,82688,5eee7d94e6ca673243259416,2022-03-28 11:21:49
320,701,n03888257,parachute,aircraft,vehicle,2,l,200,0.25,j,f,0,99.40000000037253,82788,5eee7d94e6ca673243259416,2022-03-28 11:21:49
321,762,n04081281,restaurant,building,outdoor,2,l,120,0.05,j,j,1,95.29999999981374,82883,5eee7d94e6ca673243259416,2022-03-28 11:21:49
322,6,n01498041,stingray,fish,animal,0,r,0,-0.25,j,j,1,184.0,83068,5eee7d94e6ca673243259416,2022-03-28 11:21:49
323,219,n02102318,cocker_spaniel,dog,animal,2,r,110,0.025,f,f,1,127.20000000018626,83195,5eee7d94e6ca673243259416,2022-03-28 11:21:49
324,150,n02077923,sea_lion,marine mammals,animal,2,l,40,-0.15,f,j,0,51.59999999962747,83248,5eee7d94e6ca673243259416,2022-03-28 11:21:49
325,137,n02018207,American_coot,bird,animal,2,l,20,-0.2,f,f,1,95.40000000037253,83343,5eee7d94e6ca673243259416,2022-03-28 11:21:49
326,101,n01871265,tusker,ungulate,animal,0,l,98,-0.005,f,j,0,107.3999999994412,83451,5eee7d94e6ca673243259416,2022-03-28 11:21:49
327,619,n03637318,lampshade,decor,indoor,0,r,160,0.15,f,f,1,111.5,83563,5eee7d94e6ca673243259416,2022-03-28 11:21:49
328,530,n03196217,digital_clock,electronics,tool,1,l,90,-0.025,f,j,0,63.59999999962747,83628,5eee7d94e6ca673243259416,2022-03-28 11:21:49
329,330,n02325366,wood_rabbit,rabbit,animal,2,r,160,0.15,f,f,1,115.6000000005588,83744,5eee7d94e6ca673243259416,2022-03-28 11:21:49
330,56,n01734418,king_snake,snake,animal,0,l,101,0.0025,j,j,1,83.5,83828,5eee7d94e6ca673243259416,2022-03-28 11:21:49
331,792,n04208210,shovel,tool,tool,1,l,70,-0.075,f,f,1,87.29999999981374,83916,5eee7d94e6ca673243259416,2022-03-28 11:21:49
332,484,n02981792,catamaran,boat,vehicle,2,r,101,0.0025,f,j,0,91.5,84008,5eee7d94e6ca673243259416,2022-03-28 11:21:49
333,831,n04344873,studio_couch,furniture,indoor,1,l,130,0.075,j,f,0,139.30000000074506,84148,5eee7d94e6ca673243259416,2022-03-28 11:21:49
334,161,n02088238,basset,dog,animal,2,l,180,0.2,j,j,1,39.40000000037253,84188,5eee7d94e6ca673243259416,2022-03-28 11:21:49
335,863,n04458633,totem_pole,outdoor scene,outdoor,0,l,20,-0.2,f,f,1,123.29999999981374,84311,5eee7d94e6ca673243259416,2022-03-28 11:21:49
336,383,n02497673,Madagascar_cat,mongoose,animal,2,l,180,0.2,j,j,1,67.79999999981374,84380,5eee7d94e6ca673243259416,2022-03-28 11:21:49
337,538,n03220513,dome,building,outdoor,0,r,99,-0.0025,j,f,0,132.29999999981374,84513,5eee7d94e6ca673243259416,2022-03-28 11:21:49
338,884,n04523525,vault,container,indoor,2,r,101,0.0025,f,j,0,51.5,84565,5eee7d94e6ca673243259416,2022-03-28 11:21:49
339,555,n03345487,fire_engine,vehicle,vehicle,2,l,60,-0.1,f,f,1,147.20000000018626,84712,5eee7d94e6ca673243259416,2022-03-28 11:21:49
340,603,n03538406,horse_cart,vehicle,vehicle,0,l,120,0.05,j,j,1,27.5,84741,5eee7d94e6ca673243259416,2022-03-28 11:21:49
341,344,n02398521,hippopotamus,ungulate,animal,1,l,106,0.015,j,f,0,163.79999999981374,84905,5eee7d94e6ca673243259416,2022-03-28 11:21:49
342,867,n04467665,trailer_truck,vehicle,vehicle,0,r,160,0.15,f,j,0,59.299999999813735,84965,5eee7d94e6ca673243259416,2022-03-28 11:21:49
343,946,n07730033,cardoon,flower,nature,2,r,180,0.2,f,f,1,131.6000000005588,85097,5eee7d94e6ca673243259416,2022-03-28 11:21:49
344,183,n02093859,Kerry_blue_terrier,dog,animal,0,r,80,-0.05,j,j,1,71.29999999981374,85169,5eee7d94e6ca673243259416,2022-03-28 11:21:49
345,479,n02974003,car_wheel,technology,tool,2,l,90,-0.025,f,f,1,123.5,85293,5eee7d94e6ca673243259416,2022-03-28 11:21:49
346,933,n07697313,cheeseburger,food,food,2,l,160,0.15,j,j,1,87.20000000018626,85380,5eee7d94e6ca673243259416,2022-03-28 11:21:49
347,993,n13037406,gyromitra,fungus,nature,2,r,106,0.015,f,j,0,207.29999999981374,85589,5eee7d94e6ca673243259416,2022-03-28 11:21:49
348,925,n07584110,consomme,food,food,0,r,20,-0.2,j,f,0,147.20000000018626,85736,5eee7d94e6ca673243259416,2022-03-28 11:21:49
349,113,n01944390,snail,mollusk,animal,1,r,200,0.25,f,j,0,39.5,85777,5eee7d94e6ca673243259416,2022-03-28 11:21:49
350,73,n01773549,barn_spider,arachnid,animal,0,l,98,-0.005,f,f,1,99.5,85876,5eee7d94e6ca673243259416,2022-03-28 11:21:49
351,510,n03095699,container_ship,boat,vehicle,0,l,98,-0.005,f,j,0,96.1000000005588,85973,5eee7d94e6ca673243259416,2022-03-28 11:21:49
352,595,n03496892,harvester,vehicle,vehicle,2,r,70,-0.075,j,f,0,107.20000000018626,86080,5eee7d94e6ca673243259416,2022-03-28 11:21:49
353,291,n02129165,lion,wild cat,animal,2,l,0,-0.25,f,j,0,88.0,86169,5eee7d94e6ca673243259416,2022-03-28 11:21:49
354,799,n04239074,sliding_door,furniture,indoor,1,r,80,-0.05,j,f,0,119.20000000018626,86288,5eee7d94e6ca673243259416,2022-03-28 11:21:49
355,361,n02445715,skunk,ferret,animal,0,l,140,0.1,j,j,1,75.90000000037253,86365,5eee7d94e6ca673243259416,2022-03-28 11:21:49
356,725,n03950228,pitcher,cooking,food,2,r,200,0.25,f,f,1,135.3999999994412,86501,5eee7d94e6ca673243259416,2022-03-28 11:21:49
357,911,n04599235,wool,other,clothing,2,r,70,-0.075,j,j,1,51.5,86553,5eee7d94e6ca673243259416,2022-03-28 11:21:49
358,79,n01784675,centipede,bug,animal,1,r,101,0.0025,f,f,1,151.29999999981374,86705,5eee7d94e6ca673243259416,2022-03-28 11:21:49
359,309,n02206856,bee,bug,animal,1,l,130,0.075,j,j,1,43.60000000055879,86749,5eee7d94e6ca673243259416,2022-03-28 11:21:49
360,626,n03666591,lighter,tool,tool,2,r,200,0.25,f,f,1,147.09999999962747,86896,5eee7d94e6ca673243259416,2022-03-28 11:21:49
361,40,n01682714,American_chameleon,lizard,animal,1,r,20,-0.2,j,j,1,43.69999999925494,86941,5eee7d94e6ca673243259416,2022-03-28 11:21:49
362,453,n02870880,bookcase,furniture,indoor,0,r,180,0.2,f,f,1,147.09999999962747,87088,5eee7d94e6ca673243259416,2022-03-28 11:21:49
363,410,n02727426,apiary,outdoor scene,nature,1,l,140,0.1,j,j,1,59.799999999813735,87149,5eee7d94e6ca673243259416,2022-03-28 11:21:49
364,857,n04429376,throne,furniture,indoor,0,l,130,0.075,j,f,0,123.40000000037253,87272,5eee7d94e6ca673243259416,2022-03-28 11:21:49
365,632,n03691459,loudspeaker,electronics,tool,1,r,102,0.005,f,j,0,63.69999999925494,87337,5eee7d94e6ca673243259416,2022-03-28 11:21:49
366,976,n09399592,promontory,outdoor scene,nature,0,l,94,-0.015,f,f,1,119.30000000074506,87456,5eee7d94e6ca673243259416,2022-03-28 11:21:49
367,284,n02123597,Siamese_cat,cat,animal,0,r,101,0.0025,f,j,0,55.799999999813735,87513,5eee7d94e6ca673243259416,2022-03-28 11:21:49
368,554,n03344393,fireboat,boat,vehicle,1,l,99,-0.0025,f,f,1,131.30000000074506,87645,5eee7d94e6ca673243259416,2022-03-28 11:21:49
369,366,n02480855,gorilla,primate,animal,2,l,90,-0.025,f,j,0,67.59999999962747,87713,5eee7d94e6ca673243259416,2022-03-28 11:21:49
370,511,n03100240,convertible,vehicle,vehicle,1,l,99,-0.0025,f,f,1,127.29999999981374,87840,5eee7d94e6ca673243259416,2022-03-28 11:21:49
371,505,n03063689,coffeepot,cooking,food,2,l,60,-0.1,f,j,0,55.89999999944121,87897,5eee7d94e6ca673243259416,2022-03-28 11:21:49
372,900,n04562935,water_tower,outdoor scene,outdoor,2,r,200,0.25,f,f,1,148.29999999981374,88046,5eee7d94e6ca673243259416,2022-03-28 11:21:49
373,539,n03223299,doormat,decor,indoor,2,r,70,-0.075,j,j,1,63.5,88110,5eee7d94e6ca673243259416,2022-03-28 11:21:49
374,494,n03017168,chime,instrument,tool,2,l,80,-0.05,f,f,1,131.40000000037253,88241,5eee7d94e6ca673243259416,2022-03-28 11:21:49
375,147,n02066245,grey_whale,marine mammals,animal,2,l,80,-0.05,f,j,0,59.5,88302,5eee7d94e6ca673243259416,2022-03-28 11:21:49
376,575,n03445924,golfcart,vehicle,vehicle,2,l,140,0.1,j,f,0,147.40000000037253,88449,5eee7d94e6ca673243259416,2022-03-28 11:21:49
377,472,n02951358,canoe,boat,vehicle,0,r,0,-0.25,j,j,1,47.89999999944121,88498,5eee7d94e6ca673243259416,2022-03-28 11:21:49
378,712,n03920288,Petri_dish,lab equipment,tool,2,r,98,-0.005,j,f,0,127.29999999981374,88625,5eee7d94e6ca673243259416,2022-03-28 11:21:49
379,118,n01978287,Dungeness_crab,crustacean,animal,0,r,0,-0.25,j,j,1,67.8999999994412,88694,5eee7d94e6ca673243259416,2022-03-28 11:21:49
380,354,n02437312,Arabian_camel,ungulate,animal,0,l,80,-0.05,f,f,1,135.59999999962747,88830,5eee7d94e6ca673243259416,2022-03-28 11:21:49
381,832,n04346328,stupa,building,outdoor,0,r,101,0.0025,f,j,0,63.799999999813735,88894,5eee7d94e6ca673243259416,2022-03-28 11:21:49
382,31,n01644373,tree_frog,frog,animal,2,r,180,0.2,f,f,1,143.40000000037253,89038,5eee7d94e6ca673243259416,2022-03-28 11:21:49
383,873,n04486054,triumphal_arch,outdoor scene,outdoor,1,l,106,0.015,j,j,1,47.299999999813735,89086,5eee7d94e6ca673243259416,2022-03-28 11:21:49
384,733,n03976657,pole,sports equipment,tool,0,l,80,-0.05,f,f,1,159.30000000074506,89246,5eee7d94e6ca673243259416,2022-03-28 11:21:49
385,822,n04311174,steel_drum,instrument,tool,0,r,101,0.0025,f,j,0,55.700000000186265,89302,5eee7d94e6ca673243259416,2022-03-28 11:21:49
386,950,n07747607,orange,fruit,food,1,l,102,0.005,j,f,0,135.29999999981374,89438,5eee7d94e6ca673243259416,2022-03-28 11:21:49
387,189,n02095570,Lakeland_terrier,dog,animal,2,l,60,-0.1,f,j,0,63.5,89502,5eee7d94e6ca673243259416,2022-03-28 11:21:49
388,640,n03717622,manhole_cover,outdoor scene,outdoor,0,l,140,0.1,j,f,0,155.20000000018626,89658,5eee7d94e6ca673243259416,2022-03-28 11:21:49
389,396,n02643566,lionfish,fish,animal,2,r,90,-0.025,j,j,1,31.40000000037253,89690,5eee7d94e6ca673243259416,2022-03-28 11:21:49
390,55,n01729977,green_snake,snake,animal,2,l,70,-0.075,f,f,1,187.5,89878,5eee7d94e6ca673243259416,2022-03-28 11:21:49
391,571,n03425413,gas_pump,technology,tool,0,l,20,-0.2,f,j,0,27.59999999962747,89906,5eee7d94e6ca673243259416,2022-03-28 11:21:49
392,290,n02128925,jaguar,wild cat,animal,0,r,60,-0.1,j,f,0,195.29999999981374,90102,5eee7d94e6ca673243259416,2022-03-28 11:21:49
393,408,n02704792,amphibian,vehicle,vehicle,1,r,102,0.005,f,j,0,3.400000000372529,90106,5eee7d94e6ca673243259416,2022-03-28 11:21:49
394,800,n04243546,slot,electronics,tool,2,r,20,-0.2,j,j,1,195.20000000018626,90301,5eee7d94e6ca673243259416,2022-03-28 11:21:49
395,677,n03804744,nail,tool,tool,2,r,130,0.075,f,f,1,131.3999999994412,90433,5eee7d94e6ca673243259416,2022-03-28 11:21:49
396,319,n02268443,dragonfly,bug,animal,2,r,140,0.1,f,j,0,59.69999999925494,90494,5eee7d94e6ca673243259416,2022-03-28 11:21:49
397,988,n12267677,acorn,plant,nature,2,l,110,0.025,j,f,0,150.90000000037253,90646,5eee7d94e6ca673243259416,2022-03-28 11:21:49
398,421,n02788148,bannister,furniture,indoor,1,l,160,0.15,j,j,1,63.5,90710,5eee7d94e6ca673243259416,2022-03-28 11:21:49
399,121,n01981276,king_crab,crustacean,animal,0,l,200,0.25,j,f,0,144.29999999981374,90855,5eee7d94e6ca673243259416,2022-03-28 11:21:49
400,417,n02782093,balloon,toy,tool,1,r,106,0.015,f,j,0,55.5,90911,5eee7d94e6ca673243259416,2022-03-28 11:21:49
401,94,n01833805,hummingbird,bird,animal,2,l,80,-0.05,f,f,1,143.20000000018626,91055,5eee7d94e6ca673243259416,2022-03-28 11:21:49
402,562,n03388043,fountain,outdoor scene,outdoor,0,r,80,-0.05,j,j,1,75.70000000018626,91131,5eee7d94e6ca673243259416,2022-03-28 11:21:49
403,866,n04465501,tractor,vehicle,vehicle,1,l,40,-0.15,f,f,1,155.09999999962747,91286,5eee7d94e6ca673243259416,2022-03-28 11:21:49
404,196,n02097047,miniature_schnauzer,dog,animal,1,l,70,-0.075,f,j,0,43.69999999925494,91331,5eee7d94e6ca673243259416,2022-03-28 11:21:49
405,895,n04552348,warplane,aircraft,vehicle,2,r,130,0.075,f,f,1,175.59999999962747,91507,5eee7d94e6ca673243259416,2022-03-28 11:21:49
406,645,n03733131,maypole,outdoor scene,outdoor,0,l,140,0.1,j,j,1,27.199999999254942,91535,5eee7d94e6ca673243259416,2022-03-28 11:21:49
407,854,n04418357,theater_curtain,decor,indoor,1,r,60,-0.1,j,f,0,155.29999999981374,91691,5eee7d94e6ca673243259416,2022-03-28 11:21:49
408,953,n07753275,pineapple,fruit,food,0,l,160,0.15,j,j,1,75.3999999994412,91767,5eee7d94e6ca673243259416,2022-03-28 11:21:49
409,741,n03998194,prayer_rug,decor,indoor,0,r,120,0.05,f,f,1,143.29999999981374,91911,5eee7d94e6ca673243259416,2022-03-28 11:21:49
410,310,n02219486,ant,bug,animal,2,r,130,0.075,f,f,1,199.5,92111,5eee7d94e6ca673243259416,2022-03-28 11:21:49
411,187,n02094433,Yorkshire_terrier,dog,animal,2,r,180,0.2,f,f,1,159.20000000018626,92270,5eee7d94e6ca673243259416,2022-03-28 11:21:49
412,974,n09288635,geyser,outdoor scene,nature,0,r,106,0.015,f,j,0,151.79999999981374,92423,5eee7d94e6ca673243259416,2022-03-28 11:21:49
413,913,n04606251,wreck,boat,vehicle,0,r,130,0.075,f,j,0,175.3999999994412,92599,5eee7d94e6ca673243259416,2022-03-28 11:21:49
414,285,n02124075,Egyptian_cat,cat,animal,0,r,106,0.015,f,j,0,167.5,92767,5eee7d94e6ca673243259416,2022-03-28 11:21:49
415,651,n03761084,microwave,electronics,tool,0,r,94,-0.015,j,j,1,171.30000000074506,92939,5eee7d94e6ca673243259416,2022-03-28 11:21:49
416,50,n01698640,American_alligator,crocodile,animal,0,l,60,-0.1,f,f,1,159.40000000037253,93099,5eee7d94e6ca673243259416,2022-03-28 11:21:49
417,548,n03290653,entertainment_center,furniture,indoor,1,l,120,0.05,j,f,0,151.69999999925494,93251,5eee7d94e6ca673243259416,2022-03-28 11:21:49
418,536,n03216828,dock,outdoor scene,outdoor,2,r,120,0.05,f,f,1,159.29999999981374,93411,5eee7d94e6ca673243259416,2022-03-28 11:21:49
419,915,n04613696,yurt,building,outdoor,0,l,130,0.075,j,j,1,95.40000000037253,93507,5eee7d94e6ca673243259416,2022-03-28 11:21:49
420,864,n04461696,tow_truck,vehicle,vehicle,0,r,140,0.1,f,j,0,163.29999999981374,93671,5eee7d94e6ca673243259416,2022-03-28 11:21:49
421,374,n02488291,langur,primate,animal,2,r,0,-0.25,j,f,0,143.0,93814,5eee7d94e6ca673243259416,2022-03-28 11:21:49
422,951,n07749582,lemon,fruit,food,0,r,0,-0.25,j,j,1,79.69999999925494,93895,5eee7d94e6ca673243259416,2022-03-28 11:21:49
423,218,n02102177,Welsh_springer_spaniel,dog,animal,0,r,101,0.0025,f,j,0,195.29999999981374,94091,5eee7d94e6ca673243259416,2022-03-28 11:21:49
424,986,n12057211,yellow_lady's_slipper,flower,nature,2,l,20,-0.2,f,f,1,3.300000000745058,94095,5eee7d94e6ca673243259416,2022-03-28 11:21:49
425,428,n02797295,barrow,tool,tool,2,r,94,-0.015,j,f,0,183.8999999994412,94279,5eee7d94e6ca673243259416,2022-03-28 11:21:49
426,959,n07831146,carbonara,food,food,2,l,102,0.005,j,j,1,127.09999999962747,94407,5eee7d94e6ca673243259416,2022-03-28 11:21:49
427,979,n09468604,valley,outdoor scene,nature,0,l,110,0.025,j,f,0,191.40000000037253,94599,5eee7d94e6ca673243259416,2022-03-28 11:21:49
428,669,n03788365,mosquito_net,other,tool,0,l,140,0.1,j,f,0,175.40000000037253,94775,5eee7d94e6ca673243259416,2022-03-28 11:21:49
429,934,n07697537,hotdog,food,food,2,l,110,0.025,j,j,1,140.40000000037253,94915,5eee7d94e6ca673243259416,2022-03-28 11:21:49
430,573,n03444034,go-kart,vehicle,vehicle,2,l,90,-0.025,f,j,0,171.8999999994412,95088,5eee7d94e6ca673243259416,2022-03-28 11:21:49
431,820,n04310018,steam_locomotive,train,vehicle,1,r,70,-0.075,j,j,1,179.29999999981374,95268,5eee7d94e6ca673243259416,2022-03-28 11:21:49
432,200,n02097474,Tibetan_terrier,dog,animal,2,l,94,-0.015,f,f,1,35.5,95304,5eee7d94e6ca673243259416,2022-03-28 11:21:49
433,938,n07715103,cauliflower,vegetable,food,2,l,80,-0.05,f,j,0,191.40000000037253,95496,5eee7d94e6ca673243259416,2022-03-28 11:21:49
434,1,n01443537,goldfish,fish,animal,0,l,94,-0.015,f,f,1,23.200000000186265,95520,5eee7d94e6ca673243259416,2022-03-28 11:21:49
435,858,n04435653,tile_roof,building,outdoor,1,l,40,-0.15,f,j,0,171.5,95692,5eee7d94e6ca673243259416,2022-03-28 11:21:49
436,127,n02002556,white_stork,bird,animal,2,r,180,0.2,f,f,1,3.2000000001862645,95696,5eee7d94e6ca673243259416,2022-03-28 11:21:49
437,259,n02112018,Pomeranian,dog,animal,2,r,101,0.0025,f,f,1,171.79999999981374,95868,5eee7d94e6ca673243259416,2022-03-28 11:21:49
438,423,n02791124,barber_chair,furniture,indoor,1,r,200,0.25,f,j,0,27.5,95896,5eee7d94e6ca673243259416,2022-03-28 11:21:49
439,229,n02105641,Old_English_sheepdog,dog,animal,0,l,80,-0.05,f,f,1,171.3999999994412,96068,5eee7d94e6ca673243259416,2022-03-28 11:21:49
440,972,n09246464,cliff,outdoor scene,nature,1,r,102,0.005,f,j,0,47.5,96116,5eee7d94e6ca673243259416,2022-03-28 11:21:49
441,119,n01978455,rock_crab,crustacean,animal,0,r,180,0.2,f,f,1,159.29999999981374,96276,5eee7d94e6ca673243259416,2022-03-28 11:21:49
442,579,n03452741,grand_piano,instrument,tool,0,l,0,-0.25,f,j,0,39.299999999813735,96316,5eee7d94e6ca673243259416,2022-03-28 11:21:49
443,860,n04443257,tobacco_shop,building,outdoor,0,l,60,-0.1,f,f,1,151.29999999981374,96468,5eee7d94e6ca673243259416,2022-03-28 11:21:49
444,859,n04442312,toaster,electronics,tool,2,l,160,0.15,j,j,1,47.299999999813735,96516,5eee7d94e6ca673243259416,2022-03-28 11:21:49
445,130,n02007558,flamingo,bird,animal,0,l,94,-0.015,f,f,1,143.1000000005588,96660,5eee7d94e6ca673243259416,2022-03-28 11:21:49
446,718,n03933933,pier,outdoor scene,outdoor,1,r,40,-0.15,j,j,1,39.799999999813735,96700,5eee7d94e6ca673243259416,2022-03-28 11:21:49
447,658,n03775071,mitten,clothing,clothing,0,r,106,0.015,f,f,1,155.20000000018626,96855,5eee7d94e6ca673243259416,2022-03-28 11:21:49
448,88,n01818515,macaw,bird,animal,2,l,200,0.25,j,j,1,35.89999999944121,96892,5eee7d94e6ca673243259416,2022-03-28 11:21:49
449,346,n02408429,water_buffalo,ungulate,animal,0,r,90,-0.025,j,f,0,159.20000000018626,97052,5eee7d94e6ca673243259416,2022-03-28 11:21:49
450,776,n04141076,sax,instrument,tool,2,r,200,0.25,f,j,0,47.799999999813735,97100,5eee7d94e6ca673243259416,2022-03-28 11:21:49
451,483,n02980441,castle,building,outdoor,2,r,98,-0.005,j,f,0,163.5,97264,5eee7d94e6ca673243259416,2022-03-28 11:21:49
452,927,n07613480,trifle,food,food,0,l,106,0.015,j,j,1,71.5,97336,5eee7d94e6ca673243259416,2022-03-28 11:21:49
453,937,n07714990,broccoli,vegetable,food,1,r,110,0.025,f,f,1,143.5,97480,5eee7d94e6ca673243259416,2022-03-28 11:21:49
454,448,n02843684,birdhouse,outdoor scene,nature,1,r,101,0.0025,f,j,0,63.90000000037253,97544,5eee7d94e6ca673243259416,2022-03-28 11:21:49
455,540,n03240683,drilling_platform,outdoor scene,outdoor,1,l,99,-0.0025,f,f,1,127.6000000005588,97672,5eee7d94e6ca673243259416,2022-03-28 11:21:49
456,917,n06596364,comic_book,paper,tool,1,r,40,-0.15,j,j,1,67.59999999962747,97740,5eee7d94e6ca673243259416,2022-03-28 11:21:49
457,846,n04380533,table_lamp,decor,indoor,0,r,160,0.15,f,f,1,159.1000000005588,97900,5eee7d94e6ca673243259416,2022-03-28 11:21:49
458,104,n01877812,wallaby,marsupial,animal,2,r,101,0.0025,f,j,0,23.700000000186265,97924,5eee7d94e6ca673243259416,2022-03-28 11:21:49
459,24,n01622779,great_grey_owl,bird,animal,2,r,98,-0.005,j,f,0,180.79999999981374,98105,5eee7d94e6ca673243259416,2022-03-28 11:21:49
460,107,n01910747,jellyfish,fish,animal,1,l,99,-0.0025,f,j,0,83.29999999981374,98188,5eee7d94e6ca673243259416,2022-03-28 11:21:49
461,817,n04285008,sports_car,vehicle,vehicle,2,l,200,0.25,j,f,0,131.80000000074506,98320,5eee7d94e6ca673243259416,2022-03-28 11:21:49
462,84,n01806143,peacock,bird,animal,2,l,140,0.1,j,j,1,75.80000000074506,98396,5eee7d94e6ca673243259416,2022-03-28 11:21:49
463,855,n04423845,thimble,tool,tool,1,l,120,0.05,j,f,0,127.8999999994412,98525,5eee7d94e6ca673243259416,2022-03-28 11:21:49
464,609,n03594945,jeep,vehicle,vehicle,2,r,94,-0.015,j,j,1,87.29999999981374,98612,5eee7d94e6ca673243259416,2022-03-28 11:21:49
465,145,n02056570,king_penguin,bird,animal,1,l,60,-0.1,f,f,1,119.79999999981374,98733,5eee7d94e6ca673243259416,2022-03-28 11:21:49
466,502,n03047690,clog,clothing,clothing,2,r,160,0.15,f,j,0,51.799999999813735,98785,5eee7d94e6ca673243259416,2022-03-28 11:21:49
467,812,n04266014,space_shuttle,aircraft,vehicle,0,r,40,-0.15,j,f,0,139.5,98925,5eee7d94e6ca673243259416,2022-03-28 11:21:49
468,790,n04204238,shopping_basket,container,indoor,2,l,120,0.05,j,j,1,35.700000000186265,98961,5eee7d94e6ca673243259416,2022-03-28 11:21:49
469,582,n03461385,grocery_store,building,outdoor,2,l,94,-0.015,f,j,0,179.69999999925494,99141,5eee7d94e6ca673243259416,2022-03-28 11:21:49
470,710,n03908714,pencil_sharpener,tool,tool,2,r,0,-0.25,j,f,0,11.599999999627471,99153,5eee7d94e6ca673243259416,2022-03-28 11:21:49
471,716,n03930313,picket_fence,fence,outdoor,2,l,160,0.15,j,j,1,167.5,99321,5eee7d94e6ca673243259416,2022-03-28 11:21:49
472,939,n07716358,zucchini,fruit,food,1,l,90,-0.025,f,f,1,27.699999999254942,99349,5eee7d94e6ca673243259416,2022-03-28 11:21:49
473,850,n04399382,teddy,toy,tool,1,r,0,-0.25,j,j,1,147.70000000018626,99497,5eee7d94e6ca673243259416,2022-03-28 11:21:49
474,978,n09428293,seashore,outdoor scene,nature,0,l,20,-0.2,f,f,1,39.30000000074506,99537,5eee7d94e6ca673243259416,2022-03-28 11:21:49
475,672,n03792972,mountain_tent,building,outdoor,0,r,99,-0.0025,j,j,1,155.6000000005588,99692,5eee7d94e6ca673243259416,2022-03-28 11:21:49
476,493,n03016953,chiffonier,furniture,indoor,2,l,0,-0.25,f,f,1,119.70000000018626,99812,5eee7d94e6ca673243259416,2022-03-28 11:21:49
477,843,n04371774,swing,toy,tool,2,l,98,-0.005,f,j,0,68.0,99881,5eee7d94e6ca673243259416,2022-03-28 11:21:49
478,995,n13044778,earthstar,fungus,nature,2,r,120,0.05,f,f,1,139.59999999962747,100021,5eee7d94e6ca673243259416,2022-03-28 11:21:49
479,825,n04326547,stone_wall,outdoor scene,outdoor,2,r,102,0.005,f,j,0,51.5,100073,5eee7d94e6ca673243259416,2022-03-28 11:21:49
480,598,n03529860,home_theater,building,outdoor,1,l,130,0.075,j,f,0,131.79999999981374,100205,5eee7d94e6ca673243259416,2022-03-28 11:21:49
481,527,n03180011,desktop_computer,electronics,tool,2,r,20,-0.2,j,j,1,55.5,100261,5eee7d94e6ca673243259416,2022-03-28 11:21:49
482,734,n03977966,police_van,vehicle,vehicle,2,l,180,0.2,j,f,0,139.59999999962747,100401,5eee7d94e6ca673243259416,2022-03-28 11:21:49
483,429,n02799071,baseball,ball,tool,0,l,101,0.0025,j,j,1,51.69999999925494,100453,5eee7d94e6ca673243259416,2022-03-28 11:21:49
484,406,n02699494,altar,furniture,indoor,1,l,101,0.0025,j,j,1,167.30000000074506,100620,5eee7d94e6ca673243259416,2022-03-28 11:21:49
485,996,n13052670,hen-of-the-woods,fungus,nature,1,r,94,-0.015,j,f,0,27.899999999441206,100649,5eee7d94e6ca673243259416,2022-03-28 11:21:49
486,407,n02701002,ambulance,vehicle,vehicle,0,l,99,-0.0025,f,j,0,147.29999999981374,100796,5eee7d94e6ca673243259416,2022-03-28 11:21:49
487,824,n04325704,stole,accessory,clothing,2,l,40,-0.15,f,f,1,23.899999999441206,100821,5eee7d94e6ca673243259416,2022-03-28 11:21:49
488,926,n07590611,hot_pot,cooking,food,2,l,120,0.05,j,j,1,155.30000000074506,100976,5eee7d94e6ca673243259416,2022-03-28 11:21:49
489,517,n03126707,crane,vehicle,vehicle,2,l,80,-0.05,f,f,1,39.799999999813735,101017,5eee7d94e6ca673243259416,2022-03-28 11:21:49
1,388,n02510455,giant_panda,bear,animal,2,l,94,-0.015,f,f,1,4920.20000000298,53591,615c6a31e76ea2b56a3cc473,2022-03-28 11:24:52
2,526,n03179701,desk,furniture,indoor,1,r,110,0.025,f,j,0,3297.10000000149,56889,615c6a31e76ea2b56a3cc473,2022-03-28 11:24:52
3,402,n02676566,acoustic_guitar,instrument,tool,1,r,130,0.075,f,f,1,1833.7999999970198,58723,615c6a31e76ea2b56a3cc473,2022-03-28 11:24:52
4,527,n03180011,desktop_computer,electronics,tool,0,l,80,-0.05,f,f,1,1649.3999999985099,60373,615c6a31e76ea2b56a3cc473,2022-03-28 11:24:52
5,187,n02094433,Yorkshire_terrier,dog,animal,1,l,99,-0.0025,f,f,1,2909.5,63283,615c6a31e76ea2b56a3cc473,2022-03-28 11:24:52
6,294,n02132136,brown_bear,bear,animal,0,r,40,-0.15,j,j,1,1012.3999999985099,64297,615c6a31e76ea2b56a3cc473,2022-03-28 11:24:52
7,979,n09468604,valley,outdoor scene,nature,2,r,98,-0.005,j,f,0,1884.6999999955297,66182,615c6a31e76ea2b56a3cc473,2022-03-28 11:24:52
8,710,n03908714,pencil_sharpener,tool,tool,1,r,90,-0.025,j,j,1,929.3999999985099,67112,615c6a31e76ea2b56a3cc473,2022-03-28 11:24:52
9,611,n03598930,jigsaw_puzzle,paper,tool,0,r,20,-0.2,j,j,1,1078.8999999985099,68192,615c6a31e76ea2b56a3cc473,2022-03-28 11:24:52
10,855,n04423845,thimble,tool,tool,0,r,106,0.015,f,f,1,1104.1000000014901,69297,615c6a31e76ea2b56a3cc473,2022-03-28 11:24:52
11,997,n13054560,bolete,fungus,nature,0,r,0,-0.25,j,j,1,782.8999999985099,70080,615c6a31e76ea2b56a3cc473,2022-03-28 11:24:52
12,161,n02088238,basset,dog,animal,2,l,120,0.05,j,j,1,803.2999999970198,70884,615c6a31e76ea2b56a3cc473,2022-03-28 11:24:52
13,907,n04591713,wine_bottle,food,food,0,l,200,0.25,j,j,1,1283.8999999985099,72168,615c6a31e76ea2b56a3cc473,2022-03-28 11:24:52
14,644,n03729826,matchstick,tool,tool,1,r,120,0.05,f,f,1,1072.5,73241,615c6a31e76ea2b56a3cc473,2022-03-28 11:24:52
15,130,n02007558,flamingo,bird,animal,0,l,120,0.05,j,f,0,1780.7000000029802,75022,615c6a31e76ea2b56a3cc473,2022-03-28 11:24:52
16,598,n03529860,home_theater,building,outdoor,1,r,101,0.0025,f,j,0,1120.5,76143,615c6a31e76ea2b56a3cc473,2022-03-28 11:24:52
17,386,n02504458,African_elephant,ungulate,animal,2,r,101,0.0025,f,f,1,1127.1999999955297,77271,615c6a31e76ea2b56a3cc473,2022-03-28 11:24:52
18,933,n07697313,cheeseburger,food,food,0,r,110,0.025,f,f,1,1179.1999999955297,78450,615c6a31e76ea2b56a3cc473,2022-03-28 11:24:52
19,913,n04606251,wreck,boat,vehicle,1,l,99,-0.0025,f,j,0,966.1999999955297,79417,615c6a31e76ea2b56a3cc473,2022-03-28 11:24:52
20,817,n04285008,sports_car,vehicle,vehicle,0,r,0,-0.25,j,j,1,1370.6000000014901,80788,615c6a31e76ea2b56a3cc473,2022-03-28 11:24:52
21,481,n02978881,cassette,technology,tool,1,l,101,0.0025,j,j,1,1773.6999999955297,82563,615c6a31e76ea2b56a3cc473,2022-03-28 11:24:52
22,792,n04208210,shovel,tool,tool,0,l,101,0.0025,j,j,1,1250.0,83813,615c6a31e76ea2b56a3cc473,2022-03-28 11:24:52
23,742,n04004767,printer,electronics,tool,0,l,120,0.05,j,j,1,1259.6000000014901,85073,615c6a31e76ea2b56a3cc473,2022-03-28 11:24:52
24,617,n03630383,lab_coat,clothing,clothing,1,r,101,0.0025,f,f,1,1366.7999999970198,86441,615c6a31e76ea2b56a3cc473,2022-03-28 11:24:52
25,873,n04486054,triumphal_arch,outdoor scene,outdoor,1,r,20,-0.2,j,f,0,1859.7000000029802,88301,615c6a31e76ea2b56a3cc473,2022-03-28 11:24:52
26,73,n01773549,barn_spider,arachnid,animal,2,l,70,-0.075,f,f,1,1160.1999999955297,89462,615c6a31e76ea2b56a3cc473,2022-03-28 11:24:52
27,581,n03459775,grille,vehicle,vehicle,0,l,102,0.005,j,f,0,823.2000000029802,90286,615c6a31e76ea2b56a3cc473,2022-03-28 11:24:52
28,454,n02871525,bookshop,building,outdoor,1,r,180,0.2,f,f,1,830.5,91117,615c6a31e76ea2b56a3cc473,2022-03-28 11:24:52
29,991,n12985857,coral_fungus,coral,nature,2,l,99,-0.0025,f,f,1,1363.1999999955297,92480,615c6a31e76ea2b56a3cc473,2022-03-28 11:24:52
30,330,n02325366,wood_rabbit,rabbit,animal,1,l,110,0.025,j,j,1,1162.7000000029802,93643,615c6a31e76ea2b56a3cc473,2022-03-28 11:24:52
31,63,n01748264,Indian_cobra,snake,animal,2,r,101,0.0025,f,j,0,1095.7000000029802,94740,615c6a31e76ea2b56a3cc473,2022-03-28 11:24:52
32,789,n04201297,shoji,furniture,indoor,2,r,180,0.2,f,f,1,953.6000000014901,95693,615c6a31e76ea2b56a3cc473,2022-03-28 11:24:52
33,770,n04120489,running_shoe,clothing,clothing,2,l,140,0.1,j,j,1,1111.3999999985099,96805,615c6a31e76ea2b56a3cc473,2022-03-28 11:24:52
34,998,n13133613,ear,food,food,2,r,120,0.05,f,f,1,1677.5,98483,615c6a31e76ea2b56a3cc473,2022-03-28 11:24:52
35,231,n02106030,collie,dog,animal,2,l,200,0.25,j,j,1,834.2000000029802,99318,615c6a31e76ea2b56a3cc473,2022-03-28 11:24:52
36,629,n03676483,lipstick,accessory,clothing,0,l,160,0.15,j,j,1,961.9000000059605,100280,615c6a31e76ea2b56a3cc473,2022-03-28 11:24:52
37,911,n04599235,wool,other,clothing,1,l,60,-0.1,f,f,1,925.7999999970198,101206,615c6a31e76ea2b56a3cc473,2022-03-28 11:24:52
38,734,n03977966,police_van,vehicle,vehicle,2,l,80,-0.05,f,j,0,949.3000000044703,102156,615c6a31e76ea2b56a3cc473,2022-03-28 11:24:52
39,306,n02174001,rhinoceros_beetle,bug,animal,0,l,70,-0.075,f,f,1,1064.0,103220,615c6a31e76ea2b56a3cc473,2022-03-28 11:24:52
40,207,n02099601,golden_retriever,dog,animal,1,r,94,-0.015,j,j,1,998.3999999985099,104219,615c6a31e76ea2b56a3cc473,2022-03-28 11:24:52
41,988,n12267677,acorn,plant,nature,2,l,180,0.2,j,j,1,790.2000000029802,105010,615c6a31e76ea2b56a3cc473,2022-03-28 11:24:52
42,282,n02123159,tiger_cat,wild cat,animal,2,r,20,-0.2,j,j,1,680.3000000044703,105691,615c6a31e76ea2b56a3cc473,2022-03-28 11:24:52
43,431,n02804414,bassinet,furniture,indoor,1,l,40,-0.15,f,f,1,854.0,106545,615c6a31e76ea2b56a3cc473,2022-03-28 11:24:52
44,865,n04462240,toyshop,building,outdoor,2,r,101,0.0025,f,j,0,1481.0,108027,615c6a31e76ea2b56a3cc473,2022-03-28 11:24:52
45,440,n02823428,beer_bottle,food,food,2,r,0,-0.25,j,j,1,1113.2000000029802,109141,615c6a31e76ea2b56a3cc473,2022-03-28 11:24:52
46,938,n07715103,cauliflower,vegetable,food,2,r,80,-0.05,j,f,0,1251.8999999985099,110393,615c6a31e76ea2b56a3cc473,2022-03-28 11:24:52
47,493,n03016953,chiffonier,furniture,indoor,0,l,200,0.25,j,j,1,974.6999999955297,111368,615c6a31e76ea2b56a3cc473,2022-03-28 11:24:52
48,331,n02326432,hare,rabbit,animal,1,r,160,0.15,f,f,1,1094.3999999985099,112463,615c6a31e76ea2b56a3cc473,2022-03-28 11:24:52
49,462,n02906734,broom,tool,tool,0,l,180,0.2,j,j,1,723.0,113187,615c6a31e76ea2b56a3cc473,2022-03-28 11:24:52
50,713,n03924679,photocopier,electronics,tool,0,r,94,-0.015,j,f,0,728.3999999985099,113912,615c6a31e76ea2b56a3cc473,2022-03-28 11:24:52
51,917,n06596364,comic_book,paper,tool,0,l,140,0.1,j,j,1,673.3999999985099,114586,615c6a31e76ea2b56a3cc473,2022-03-28 11:24:52
52,278,n02119789,kit_fox,wild dog,animal,1,r,98,-0.005,j,f,0,806.7999999970198,115394,615c6a31e76ea2b56a3cc473,2022-03-28 11:24:52
53,958,n07802026,hay,other,nature,0,r,160,0.15,f,j,0,552.8999999985099,115947,615c6a31e76ea2b56a3cc473,2022-03-28 11:24:52
54,704,n03891332,parking_meter,electronics,tool,2,l,20,-0.2,f,f,1,1211.7000000029802,117159,615c6a31e76ea2b56a3cc473,2022-03-28 11:24:52
55,35,n01667114,mud_turtle,turtle,animal,2,l,70,-0.075,f,f,1,865.1000000014901,118025,615c6a31e76ea2b56a3cc473,2022-03-28 11:24:52
56,582,n03461385,grocery_store,building,outdoor,2,r,0,-0.25,j,j,1,758.7000000029802,118784,615c6a31e76ea2b56a3cc473,2022-03-28 11:24:52
57,894,n04550184,wardrobe,furniture,indoor,1,r,160,0.15,f,f,1,675.6999999955297,119460,615c6a31e76ea2b56a3cc473,2022-03-28 11:24:52
58,951,n07749582,lemon,fruit,food,2,l,110,0.025,j,j,1,1666.1000000014901,121127,615c6a31e76ea2b56a3cc473,2022-03-28 11:24:52
59,437,n02814860,beacon,building,outdoor,2,l,80,-0.05,f,f,1,889.1000000014901,122017,615c6a31e76ea2b56a3cc473,2022-03-28 11:24:52
60,668,n03788195,mosque,building,outdoor,2,r,200,0.25,f,f,1,700.8999999985099,122718,615c6a31e76ea2b56a3cc473,2022-03-28 11:24:52
61,846,n04380533,table_lamp,decor,indoor,1,l,106,0.015,j,f,0,1195.3000000044703,123914,615c6a31e76ea2b56a3cc473,2022-03-28 11:24:52
62,854,n04418357,theater_curtain,decor,indoor,2,l,60,-0.1,f,f,1,634.1000000014901,124548,615c6a31e76ea2b56a3cc473,2022-03-28 11:24:52
63,145,n02056570,king_penguin,bird,animal,0,r,99,-0.0025,j,f,0,1706.5999999940395,126255,615c6a31e76ea2b56a3cc473,2022-03-28 11:24:52
64,554,n03344393,fireboat,boat,vehicle,1,r,98,-0.005,j,f,0,1866.4000000059605,128122,615c6a31e76ea2b56a3cc473,2022-03-28 11:24:52
65,965,n07880968,burrito,food,food,1,l,106,0.015,j,j,1,1062.3999999985099,129185,615c6a31e76ea2b56a3cc473,2022-03-28 11:24:52
66,862,n04456115,torch,tool,tool,2,l,90,-0.025,f,f,1,1215.0,130401,615c6a31e76ea2b56a3cc473,2022-03-28 11:24:52
67,819,n04296562,stage,furniture,indoor,1,l,110,0.025,j,f,0,1030.7999999970198,131432,615c6a31e76ea2b56a3cc473,2022-03-28 11:24:52
68,779,n04146614,school_bus,vehicle,vehicle,0,l,200,0.25,j,j,1,1140.7000000029802,132573,615c6a31e76ea2b56a3cc473,2022-03-28 11:24:52
69,364,n02457408,three-toed_sloth,sloth,animal,0,r,98,-0.005,j,j,1,1197.3000000044703,133771,615c6a31e76ea2b56a3cc473,2022-03-28 11:24:52
70,731,n03970156,plunger,tool,tool,2,l,106,0.015,j,f,0,1211.3999999985099,134984,615c6a31e76ea2b56a3cc473,2022-03-28 11:24:52
71,292,n02129604,tiger,wild cat,animal,1,l,60,-0.1,f,f,1,799.8000000044703,135784,615c6a31e76ea2b56a3cc473,2022-03-28 11:24:52
72,909,n04596742,wok,cooking,food,2,r,99,-0.0025,j,j,1,1234.1999999955297,137019,615c6a31e76ea2b56a3cc473,2022-03-28 11:24:52
73,475,n02965783,car_mirror,technology,tool,0,r,20,-0.2,j,j,1,867.5,137887,615c6a31e76ea2b56a3cc473,2022-03-28 11:24:52
74,642,n03721384,marimba,instrument,tool,1,l,200,0.25,j,j,1,1018.3000000044703,138905,615c6a31e76ea2b56a3cc473,2022-03-28 11:24:52
75,484,n02981792,catamaran,boat,vehicle,1,r,110,0.025,f,f,1,906.2999999970198,139812,615c6a31e76ea2b56a3cc473,2022-03-28 11:24:52
76,181,n02093647,Bedlington_terrier,dog,animal,2,r,110,0.025,f,j,0,1092.8999999985099,140906,615c6a31e76ea2b56a3cc473,2022-03-28 11:24:52
77,812,n04266014,space_shuttle,aircraft,vehicle,1,l,40,-0.15,f,f,1,838.5999999940395,141745,615c6a31e76ea2b56a3cc473,2022-03-28 11:24:52
78,594,n03495258,harp,instrument,tool,1,r,70,-0.075,j,j,1,674.3000000044703,142420,615c6a31e76ea2b56a3cc473,2022-03-28 11:24:52
79,831,n04344873,studio_couch,furniture,indoor,0,l,180,0.2,j,j,1,771.0,143191,615c6a31e76ea2b56a3cc473,2022-03-28 11:24:52
80,219,n02102318,cocker_spaniel,dog,animal,1,r,106,0.015,f,f,1,676.3999999985099,143868,615c6a31e76ea2b56a3cc473,2022-03-28 11:24:52
81,505,n03063689,coffeepot,cooking,food,2,r,99,-0.0025,j,j,1,1013.8999999985099,144882,615c6a31e76ea2b56a3cc473,2022-03-28 11:24:52
82,472,n02951358,canoe,boat,vehicle,2,r,90,-0.025,j,f,0,873.7999999970198,145756,615c6a31e76ea2b56a3cc473,2022-03-28 11:24:52
83,565,n03393912,freight_car,train,vehicle,2,l,110,0.025,j,j,1,607.1000000014901,146364,615c6a31e76ea2b56a3cc473,2022-03-28 11:24:52
84,37,n01669191,box_turtle,turtle,animal,2,l,60,-0.1,f,f,1,393.29999999701977,146758,615c6a31e76ea2b56a3cc473,2022-03-28 11:24:52
85,55,n01729977,green_snake,snake,animal,1,r,102,0.005,f,f,1,738.2000000029802,147497,615c6a31e76ea2b56a3cc473,2022-03-28 11:24:52
86,346,n02408429,water_buffalo,ungulate,animal,1,r,160,0.15,f,j,0,895.6999999955297,148393,615c6a31e76ea2b56a3cc473,2022-03-28 11:24:52
87,148,n02071294,killer_whale,marine mammals,animal,2,r,98,-0.005,j,f,0,611.0,149004,615c6a31e76ea2b56a3cc473,2022-03-28 11:24:52
88,945,n07720875,bell_pepper,vegetable,food,0,l,106,0.015,j,f,0,522.1000000014901,149527,615c6a31e76ea2b56a3cc473,2022-03-28 11:24:52
89,12,n01532829,house_finch,bird,animal,2,l,99,-0.0025,f,j,0,714.8999999985099,150242,615c6a31e76ea2b56a3cc473,2022-03-28 11:24:52
90,824,n04325704,stole,accessory,clothing,1,r,90,-0.025,j,j,1,1092.6999999955297,151336,615c6a31e76ea2b56a3cc473,2022-03-28 11:24:52
91,924,n07583066,guacamole,food,food,2,l,102,0.005,j,f,0,1265.9000000059605,152602,615c6a31e76ea2b56a3cc473,2022-03-28 11:24:52
92,866,n04465501,tractor,vehicle,vehicle,2,l,102,0.005,j,f,0,552.5,153155,615c6a31e76ea2b56a3cc473,2022-03-28 11:24:52
93,802,n04252077,snowmobile,vehicle,vehicle,0,l,200,0.25,j,j,1,725.0,153881,615c6a31e76ea2b56a3cc473,2022-03-28 11:24:52
94,599,n03530642,honeycomb,other,nature,0,r,130,0.075,f,f,1,554.0,154435,615c6a31e76ea2b56a3cc473,2022-03-28 11:24:52
95,915,n04613696,yurt,building,outdoor,0,r,20,-0.2,j,j,1,659.7999999970198,155095,615c6a31e76ea2b56a3cc473,2022-03-28 11:24:52
96,74,n01773797,garden_spider,arachnid,animal,2,r,60,-0.1,j,f,0,665.1000000014901,155761,615c6a31e76ea2b56a3cc473,2022-03-28 11:24:52
97,954,n07753592,banana,fruit,food,0,l,98,-0.005,f,j,0,1111.3999999985099,156873,615c6a31e76ea2b56a3cc473,2022-03-28 11:24:52
98,80,n01795545,black_grouse,bird,animal,0,r,102,0.005,f,j,0,756.2000000029802,157630,615c6a31e76ea2b56a3cc473,2022-03-28 11:24:52
99,985,n11939491,daisy,flower,nature,2,l,200,0.25,j,j,1,1490.2000000029802,159120,615c6a31e76ea2b56a3cc473,2022-03-28 11:24:52
100,630,n03680355,Loafer,clothing,clothing,0,l,60,-0.1,f,f,1,1250.2000000029802,160371,615c6a31e76ea2b56a3cc473,2022-03-28 11:24:52
101,477,n02966687,carpenter's_kit,tool,tool,0,r,180,0.2,f,f,1,647.1999999955297,161019,615c6a31e76ea2b56a3cc473,2022-03-28 11:24:52
102,150,n02077923,sea_lion,marine mammals,animal,1,l,99,-0.0025,f,f,1,840.3999999985099,161859,615c6a31e76ea2b56a3cc473,2022-03-28 11:24:52
103,640,n03717622,manhole_cover,outdoor scene,outdoor,0,r,80,-0.05,j,j,1,1065.0,162925,615c6a31e76ea2b56a3cc473,2022-03-28 11:24:52
104,498,n03032252,cinema,building,outdoor,2,r,110,0.025,f,f,1,921.6000000014901,163847,615c6a31e76ea2b56a3cc473,2022-03-28 11:24:52
105,290,n02128925,jaguar,wild cat,animal,0,r,90,-0.025,j,f,0,1270.2999999970198,165118,615c6a31e76ea2b56a3cc473,2022-03-28 11:24:52
106,934,n07697537,hotdog,food,food,0,l,110,0.025,j,j,1,1607.2000000029802,166725,615c6a31e76ea2b56a3cc473,2022-03-28 11:24:52
107,839,n04366367,suspension_bridge,outdoor scene,outdoor,1,l,94,-0.015,f,f,1,933.8000000044703,167660,615c6a31e76ea2b56a3cc473,2022-03-28 11:24:52
108,478,n02971356,carton,container,indoor,1,l,60,-0.1,f,f,1,1112.7999999970198,168773,615c6a31e76ea2b56a3cc473,2022-03-28 11:24:52
109,815,n04275548,spider_web,outdoor scene,nature,2,l,99,-0.0025,f,j,0,1196.6000000014901,169970,615c6a31e76ea2b56a3cc473,2022-03-28 11:24:52
110,807,n04258138,solar_dish,technology,tool,2,r,200,0.25,f,f,1,864.1999999955297,170835,615c6a31e76ea2b56a3cc473,2022-03-28 11:24:52
111,305,n02172182,dung_beetle,bug,animal,2,r,60,-0.1,j,j,1,1077.6999999955297,171913,615c6a31e76ea2b56a3cc473,2022-03-28 11:24:52
112,277,n02119022,red_fox,wild dog,animal,1,r,200,0.25,f,f,1,1013.2999999970198,172926,615c6a31e76ea2b56a3cc473,2022-03-28 11:24:52
113,192,n02096177,cairn,dog,animal,1,r,102,0.005,f,j,0,1092.2000000029802,174014,615c6a31e76ea2b56a3cc473,2022-03-28 11:24:52
114,791,n04204347,shopping_cart,container,indoor,2,l,160,0.15,j,j,1,1052.1999999955297,175067,615c6a31e76ea2b56a3cc473,2022-03-28 11:24:52
115,547,n03272562,electric_locomotive,train,vehicle,2,r,160,0.15,f,f,1,747.3000000044703,175815,615c6a31e76ea2b56a3cc473,2022-03-28 11:24:52
116,590,n03485407,hand-held_computer,electronics,tool,2,l,130,0.075,j,j,1,1666.8999999985099,177482,615c6a31e76ea2b56a3cc473,2022-03-28 11:24:52
117,458,n02892201,brass,decor,indoor,2,l,40,-0.15,f,f,1,1571.5,179054,615c6a31e76ea2b56a3cc473,2022-03-28 11:24:52
118,409,n02708093,analog_clock,decor,indoor,1,r,160,0.15,f,f,1,928.0,179982,615c6a31e76ea2b56a3cc473,2022-03-28 11:24:52
119,489,n03000134,chainlink_fence,fence,outdoor,2,r,99,-0.0025,j,j,1,842.3999999985099,180825,615c6a31e76ea2b56a3cc473,2022-03-28 11:24:52
120,573,n03444034,go-kart,vehicle,vehicle,1,r,101,0.0025,f,f,1,1136.6999999955297,181962,615c6a31e76ea2b56a3cc473,2022-03-28 11:24:52
121,827,n04330267,stove,furniture,indoor,2,r,130,0.075,f,f,1,857.1999999955297,182820,615c6a31e76ea2b56a3cc473,2022-03-28 11:24:52
122,634,n03697007,lumbermill,building,outdoor,1,l,80,-0.05,f,f,1,976.1000000014901,183797,615c6a31e76ea2b56a3cc473,2022-03-28 11:24:52
123,408,n02704792,amphibian,vehicle,vehicle,0,l,160,0.15,j,j,1,806.7999999970198,184604,615c6a31e76ea2b56a3cc473,2022-03-28 11:24:52
124,818,n04286575,spotlight,electronics,tool,0,l,60,-0.1,f,f,1,1236.0,185840,615c6a31e76ea2b56a3cc473,2022-03-28 11:24:52
125,471,n02950826,cannon,weapon,tool,0,l,40,-0.15,f,f,1,1181.2000000029802,187023,615c6a31e76ea2b56a3cc473,2022-03-28 11:24:52
126,492,n03014705,chest,container,indoor,2,r,0,-0.25,j,j,1,689.1000000014901,187712,615c6a31e76ea2b56a3cc473,2022-03-28 11:24:52
127,309,n02206856,bee,bug,animal,2,l,102,0.005,j,f,0,897.1000000014901,188610,615c6a31e76ea2b56a3cc473,2022-03-28 11:24:52
128,579,n03452741,grand_piano,instrument,tool,2,l,140,0.1,j,j,1,931.1000000014901,189541,615c6a31e76ea2b56a3cc473,2022-03-28 11:24:52
129,608,n03594734,jean,clothing,clothing,0,l,130,0.075,j,j,1,1102.5,190645,615c6a31e76ea2b56a3cc473,2022-03-28 11:24:52
130,563,n03388183,fountain_pen,tool,tool,2,r,102,0.005,f,j,0,1114.8999999985099,191760,615c6a31e76ea2b56a3cc473,2022-03-28 11:24:52
131,850,n04399382,teddy,toy,tool,1,r,99,-0.0025,j,f,0,849.2999999970198,192610,615c6a31e76ea2b56a3cc473,2022-03-28 11:24:52
132,671,n03792782,mountain_bike,vehicle,vehicle,0,r,20,-0.2,j,j,1,872.5,193483,615c6a31e76ea2b56a3cc473,2022-03-28 11:24:52
133,453,n02870880,bookcase,furniture,indoor,1,l,40,-0.15,f,f,1,576.1000000014901,194060,615c6a31e76ea2b56a3cc473,2022-03-28 11:24:52
134,960,n07836838,chocolate_sauce,food,food,2,l,98,-0.005,f,j,0,553.3999999985099,194613,615c6a31e76ea2b56a3cc473,2022-03-28 11:24:52
135,625,n03662601,lifeboat,boat,vehicle,0,r,99,-0.0025,j,f,0,1273.9000000059605,195888,615c6a31e76ea2b56a3cc473,2022-03-28 11:24:52
136,428,n02797295,barrow,tool,tool,0,r,200,0.25,f,j,0,510.8999999985099,196399,615c6a31e76ea2b56a3cc473,2022-03-28 11:24:52
137,381,n02493793,spider_monkey,primate,animal,2,r,99,-0.0025,j,j,1,1067.3999999985099,197468,615c6a31e76ea2b56a3cc473,2022-03-28 11:24:52
138,993,n13037406,gyromitra,fungus,nature,0,l,0,-0.25,f,f,1,497.1000000014901,197965,615c6a31e76ea2b56a3cc473,2022-03-28 11:24:52
139,546,n03272010,electric_guitar,instrument,tool,2,l,90,-0.025,f,f,1,1174.1999999955297,199140,615c6a31e76ea2b56a3cc473,2022-03-28 11:24:52
140,351,n02422106,hartebeest,ungulate,animal,2,r,60,-0.1,j,j,1,965.8999999985099,200106,615c6a31e76ea2b56a3cc473,2022-03-28 11:24:52
141,470,n02948072,candle,tool,tool,2,l,99,-0.0025,f,f,1,1025.3999999985099,201132,615c6a31e76ea2b56a3cc473,2022-03-28 11:24:52
142,571,n03425413,gas_pump,technology,tool,1,l,99,-0.0025,f,f,1,732.7999999970198,201865,615c6a31e76ea2b56a3cc473,2022-03-28 11:24:52
143,857,n04429376,throne,furniture,indoor,1,l,120,0.05,j,f,0,963.3000000044703,202829,615c6a31e76ea2b56a3cc473,2022-03-28 11:24:52
144,291,n02129165,lion,wild cat,animal,0,l,180,0.2,j,j,1,807.2000000029802,203637,615c6a31e76ea2b56a3cc473,2022-03-28 11:24:52
145,511,n03100240,convertible,vehicle,vehicle,0,l,120,0.05,j,j,1,1768.8999999985099,205407,615c6a31e76ea2b56a3cc473,2022-03-28 11:24:52
146,165,n02089078,black-and-tan_coonhound,dog,animal,0,r,101,0.0025,f,f,1,1060.2999999970198,206467,615c6a31e76ea2b56a3cc473,2022-03-28 11:24:52
147,974,n09288635,geyser,outdoor scene,nature,0,l,106,0.015,j,f,0,1137.5,207605,615c6a31e76ea2b56a3cc473,2022-03-28 11:24:52
148,137,n02018207,American_coot,bird,animal,1,l,180,0.2,j,j,1,809.1999999955297,208415,615c6a31e76ea2b56a3cc473,2022-03-28 11:24:52
149,379,n02492660,howler_monkey,primate,animal,1,r,80,-0.05,j,f,0,959.1999999955297,209374,615c6a31e76ea2b56a3cc473,2022-03-28 11:24:52
150,100,n01860187,black_swan,bird,animal,1,l,40,-0.15,f,f,1,1104.0,210479,615c6a31e76ea2b56a3cc473,2022-03-28 11:24:52
151,508,n03085013,computer_keyboard,electronics,tool,0,r,99,-0.0025,j,j,1,1351.4000000059605,211831,615c6a31e76ea2b56a3cc473,2022-03-28 11:24:52
152,79,n01784675,centipede,bug,animal,0,r,160,0.15,f,f,1,1162.3999999985099,212994,615c6a31e76ea2b56a3cc473,2022-03-28 11:24:52
153,406,n02699494,altar,furniture,indoor,2,r,130,0.075,f,f,1,1524.7999999970198,214519,615c6a31e76ea2b56a3cc473,2022-03-28 11:24:52
154,517,n03126707,crane,vehicle,vehicle,0,l,60,-0.1,f,f,1,1499.3999999985099,216019,615c6a31e76ea2b56a3cc473,2022-03-28 11:24:52
155,984,n11879895,rapeseed,flower,nature,1,l,99,-0.0025,f,j,0,941.7999999970198,216962,615c6a31e76ea2b56a3cc473,2022-03-28 11:24:52
156,937,n07714990,broccoli,vegetable,food,0,r,94,-0.015,j,f,0,873.6000000014901,217836,615c6a31e76ea2b56a3cc473,2022-03-28 11:24:52
157,953,n07753275,pineapple,fruit,food,0,l,70,-0.075,f,f,1,663.1999999955297,218500,615c6a31e76ea2b56a3cc473,2022-03-28 11:24:52
158,27,n01631663,eft,salamander,animal,2,l,0,-0.25,f,f,1,794.0,219294,615c6a31e76ea2b56a3cc473,2022-03-28 11:24:52
159,962,n07871810,meat_loaf,food,food,0,r,40,-0.15,j,j,1,748.5,220043,615c6a31e76ea2b56a3cc473,2022-03-28 11:24:52
160,427,n02795169,barrel,container,indoor,0,r,140,0.1,f,f,1,898.7999999970198,220943,615c6a31e76ea2b56a3cc473,2022-03-28 11:24:52
161,799,n04239074,sliding_door,furniture,indoor,0,l,90,-0.025,f,f,1,1326.8999999985099,222270,615c6a31e76ea2b56a3cc473,2022-03-28 11:24:52
162,301,n02165456,ladybug,bug,animal,1,l,101,0.0025,j,j,1,902.7000000029802,223173,615c6a31e76ea2b56a3cc473,2022-03-28 11:24:52
163,811,n04265275,space_heater,electronics,tool,0,r,40,-0.15,j,j,1,756.0,223930,615c6a31e76ea2b56a3cc473,2022-03-28 11:24:52
164,658,n03775071,mitten,clothing,clothing,0,l,130,0.075,j,j,1,918.2000000029802,224848,615c6a31e76ea2b56a3cc473,2022-03-28 11:24:52
165,995,n13044778,earthstar,fungus,nature,0,l,200,0.25,j,j,1,805.8999999985099,225655,615c6a31e76ea2b56a3cc473,2022-03-28 11:24:52
166,964,n07875152,potpie,food,food,1,l,110,0.025,j,j,1,2160.7999999970198,227816,615c6a31e76ea2b56a3cc473,2022-03-28 11:24:52
167,948,n07742313,Granny_Smith,fruit,food,2,r,90,-0.025,j,f,0,1104.8999999985099,228921,615c6a31e76ea2b56a3cc473,2022-03-28 11:24:52
168,803,n04252225,snowplow,vehicle,vehicle,1,l,60,-0.1,f,f,1,901.4000000059605,229823,615c6a31e76ea2b56a3cc473,2022-03-28 11:24:52
169,567,n03400231,frying_pan,cooking,food,2,l,106,0.015,j,f,0,937.4000000059605,230761,615c6a31e76ea2b56a3cc473,2022-03-28 11:24:52
170,970,n09193705,alp,outdoor scene,nature,0,l,70,-0.075,f,f,1,851.6999999955297,231614,615c6a31e76ea2b56a3cc473,2022-03-28 11:24:52
171,844,n04372370,switch,electronics,tool,0,l,60,-0.1,f,j,0,1177.7000000029802,232792,615c6a31e76ea2b56a3cc473,2022-03-28 11:24:52
172,989,n12620546,hip,flower,nature,1,r,0,-0.25,j,j,1,1481.0,234278,615c6a31e76ea2b56a3cc473,2022-03-28 11:24:52
173,336,n02361337,marmot,rodent,animal,2,l,120,0.05,j,f,0,1476.3999999985099,235755,615c6a31e76ea2b56a3cc473,2022-03-28 11:24:52
174,2,n01484850,great_white_shark,shark,animal,2,r,120,0.05,f,j,0,477.19999999552965,236232,615c6a31e76ea2b56a3cc473,2022-03-28 11:24:52
175,609,n03594945,jeep,vehicle,vehicle,2,r,160,0.15,f,f,1,1136.3000000044703,237369,615c6a31e76ea2b56a3cc473,2022-03-28 11:24:52
176,695,n03874599,padlock,technology,tool,1,r,60,-0.1,j,j,1,479.0,237848,615c6a31e76ea2b56a3cc473,2022-03-28 11:24:52
177,319,n02268443,dragonfly,bug,animal,1,r,0,-0.25,j,j,1,849.8999999985099,238699,615c6a31e76ea2b56a3cc473,2022-03-28 11:24:52
178,21,n01608432,kite,bird,animal,2,l,99,-0.0025,f,j,0,1642.5,240343,615c6a31e76ea2b56a3cc473,2022-03-28 11:24:52
179,442,n02825657,bell_cote,building,outdoor,0,r,0,-0.25,j,j,1,799.5,241143,615c6a31e76ea2b56a3cc473,2022-03-28 11:24:52
180,756,n04049303,rain_barrel,container,indoor,0,l,40,-0.15,f,f,1,902.6000000014901,242046,615c6a31e76ea2b56a3cc473,2022-03-28 11:24:52
181,480,n02977058,cash_machine,technology,tool,1,r,98,-0.005,j,f,0,454.20000000298023,242501,615c6a31e76ea2b56a3cc473,2022-03-28 11:24:52
182,859,n04442312,toaster,electronics,tool,2,l,180,0.2,j,j,1,661.1999999955297,243162,615c6a31e76ea2b56a3cc473,2022-03-28 11:24:52
183,703,n03891251,park_bench,furniture,indoor,1,r,140,0.1,f,f,1,876.1000000014901,244039,615c6a31e76ea2b56a3cc473,2022-03-28 11:24:52
184,795,n04228054,ski,sports equipment,tool,1,r,102,0.005,f,j,0,783.1999999955297,244823,615c6a31e76ea2b56a3cc473,2022-03-28 11:24:52
185,939,n07716358,zucchini,fruit,food,2,l,140,0.1,j,j,1,821.8000000044703,245645,615c6a31e76ea2b56a3cc473,2022-03-28 11:24:52
186,510,n03095699,container_ship,boat,vehicle,0,r,20,-0.2,j,j,1,1055.3999999985099,246701,615c6a31e76ea2b56a3cc473,2022-03-28 11:24:52
187,612,n03599486,jinrikisha,vehicle,vehicle,1,r,98,-0.005,j,j,1,722.2999999970198,247424,615c6a31e76ea2b56a3cc473,2022-03-28 11:24:52
188,927,n07613480,trifle,food,food,0,r,90,-0.025,j,j,1,772.5,248197,615c6a31e76ea2b56a3cc473,2022-03-28 11:24:52
189,972,n09246464,cliff,outdoor scene,nature,1,l,110,0.025,j,f,0,514.5,248712,615c6a31e76ea2b56a3cc473,2022-03-28 11:24:52
190,895,n04552348,warplane,aircraft,vehicle,2,r,94,-0.015,j,f,0,585.9000000059605,249298,615c6a31e76ea2b56a3cc473,2022-03-28 11:24:52
191,660,n03776460,mobile_home,building,outdoor,0,l,94,-0.015,f,f,1,706.5,250005,615c6a31e76ea2b56a3cc473,2022-03-28 11:24:52
192,425,n02793495,barn,building,outdoor,2,r,102,0.005,f,j,0,1012.1000000014901,251017,615c6a31e76ea2b56a3cc473,2022-03-28 11:24:52
193,961,n07860988,dough,food,food,1,l,99,-0.0025,f,j,0,583.0,251601,615c6a31e76ea2b56a3cc473,2022-03-28 11:24:52
194,919,n06794110,street_sign,outdoor scene,outdoor,1,r,110,0.025,f,j,0,1246.5,252848,615c6a31e76ea2b56a3cc473,2022-03-28 11:24:52
195,733,n03976657,pole,sports equipment,tool,1,l,101,0.0025,j,f,0,1256.6999999955297,254105,615c6a31e76ea2b56a3cc473,2022-03-28 11:24:52
196,200,n02097474,Tibetan_terrier,dog,animal,0,l,102,0.005,j,j,1,864.2000000029802,254970,615c6a31e76ea2b56a3cc473,2022-03-28 11:24:52
197,502,n03047690,clog,clothing,clothing,1,l,110,0.025,j,f,0,827.2999999970198,255798,615c6a31e76ea2b56a3cc473,2022-03-28 11:24:52
198,371,n02486261,patas,primate,animal,2,l,99,-0.0025,f,f,1,857.0,256655,615c6a31e76ea2b56a3cc473,2022-03-28 11:24:52
199,760,n04070727,refrigerator,furniture,indoor,2,l,102,0.005,j,j,1,826.8999999985099,257483,615c6a31e76ea2b56a3cc473,2022-03-28 11:24:52
200,936,n07714571,head_cabbage,vegetable,food,2,r,180,0.2,f,f,1,831.9000000059605,258315,615c6a31e76ea2b56a3cc473,2022-03-28 11:24:52
201,375,n02488702,colobus,primate,animal,0,l,120,0.05,j,f,0,675.5,258991,615c6a31e76ea2b56a3cc473,2022-03-28 11:24:52
202,548,n03290653,entertainment_center,furniture,indoor,1,r,70,-0.075,j,f,0,633.2999999970198,259625,615c6a31e76ea2b56a3cc473,2022-03-28 11:24:52
203,883,n04522168,vase,decor,indoor,1,l,140,0.1,j,j,1,618.1000000014901,260243,615c6a31e76ea2b56a3cc473,2022-03-28 11:24:52
204,949,n07745940,strawberry,fruit,food,2,l,60,-0.1,f,f,1,514.4000000059605,260758,615c6a31e76ea2b56a3cc473,2022-03-28 11:24:52
205,672,n03792972,mountain_tent,building,outdoor,0,l,90,-0.025,f,f,1,1283.0999999940395,262042,615c6a31e76ea2b56a3cc473,2022-03-28 11:24:52
206,669,n03788365,mosquito_net,other,tool,0,r,101,0.0025,f,j,0,1036.5,263079,615c6a31e76ea2b56a3cc473,2022-03-28 11:24:52
207,963,n07873807,pizza,food,food,1,r,80,-0.05,j,j,1,728.2999999970198,263808,615c6a31e76ea2b56a3cc473,2022-03-28 11:24:52
208,820,n04310018,steam_locomotive,train,vehicle,1,l,101,0.0025,j,j,1,607.6999999955297,264416,615c6a31e76ea2b56a3cc473,2022-03-28 11:24:52
209,928,n07614500,ice_cream,food,food,0,r,90,-0.025,j,f,0,894.4000000059605,265311,615c6a31e76ea2b56a3cc473,2022-03-28 11:24:52
210,746,n04019541,puck,sports equipment,tool,1,r,0,-0.25,j,j,1,851.0,266162,615c6a31e76ea2b56a3cc473,2022-03-28 11:24:52
211,374,n02488291,langur,primate,animal,1,r,101,0.0025,f,f,1,961.5,267124,615c6a31e76ea2b56a3cc473,2022-03-28 11:24:52
212,523,n03141823,crutch,tool,tool,1,r,130,0.075,f,j,0,648.1000000014901,267773,615c6a31e76ea2b56a3cc473,2022-03-28 11:24:52
213,417,n02782093,balloon,toy,tool,0,l,120,0.05,j,j,1,1082.4000000059605,268856,615c6a31e76ea2b56a3cc473,2022-03-28 11:24:52
214,532,n03201208,dining_table,furniture,indoor,0,r,98,-0.005,j,f,0,1370.8999999985099,270227,615c6a31e76ea2b56a3cc473,2022-03-28 11:24:52
215,635,n03706229,magnetic_compass,tool,tool,1,l,102,0.005,j,f,0,1019.9000000059605,271248,615c6a31e76ea2b56a3cc473,2022-03-28 11:24:52
216,711,n03916031,perfume,other,tool,1,r,0,-0.25,j,j,1,745.8000000044703,271994,615c6a31e76ea2b56a3cc473,2022-03-28 11:24:52
217,980,n09472597,volcano,outdoor scene,nature,2,r,180,0.2,f,f,1,1024.8999999985099,273020,615c6a31e76ea2b56a3cc473,2022-03-28 11:24:52
218,252,n02110627,affenpinscher,dog,animal,2,l,98,-0.005,f,j,0,973.3000000044703,273994,615c6a31e76ea2b56a3cc473,2022-03-28 11:24:52
219,360,n02444819,otter,ferret,animal,0,r,0,-0.25,j,j,1,720.0,274714,615c6a31e76ea2b56a3cc473,2022-03-28 11:24:52
220,741,n03998194,prayer_rug,decor,indoor,1,l,40,-0.15,f,f,1,751.3999999985099,275466,615c6a31e76ea2b56a3cc473,2022-03-28 11:24:52
221,438,n02815834,beaker,lab equipment,tool,1,l,102,0.005,j,j,1,804.0,276270,615c6a31e76ea2b56a3cc473,2022-03-28 11:24:52
222,28,n01632458,spotted_salamander,salamander,animal,0,r,20,-0.2,j,j,1,619.5,276891,615c6a31e76ea2b56a3cc473,2022-03-28 11:24:52
223,750,n04033995,quilt,decor,indoor,2,l,90,-0.025,f,f,1,851.3000000044703,277743,615c6a31e76ea2b56a3cc473,2022-03-28 11:24:52
224,905,n04590129,window_shade,decor,indoor,1,r,140,0.1,f,j,0,844.1000000014901,278587,615c6a31e76ea2b56a3cc473,2022-03-28 11:24:52
225,7,n01514668,cock,bird,animal,2,r,106,0.015,f,f,1,753.8000000044703,279342,615c6a31e76ea2b56a3cc473,2022-03-28 11:24:52
226,900,n04562935,water_tower,outdoor scene,outdoor,0,r,99,-0.0025,j,j,1,884.6999999955297,280227,615c6a31e76ea2b56a3cc473,2022-03-28 11:24:52
227,482,n02979186,cassette_player,electronics,tool,1,l,40,-0.15,f,f,1,558.5,280786,615c6a31e76ea2b56a3cc473,2022-03-28 11:24:52
228,399,n02667093,abaya,clothing,clothing,0,r,90,-0.025,j,j,1,1386.3000000044703,282173,615c6a31e76ea2b56a3cc473,2022-03-28 11:24:52
229,51,n01704323,triceratops,dinosaur,animal,1,l,130,0.075,j,f,0,1063.2999999970198,283236,615c6a31e76ea2b56a3cc473,2022-03-28 11:24:52
230,460,n02894605,breakwater,outdoor scene,nature,2,r,80,-0.05,j,j,1,1043.6000000014901,284280,615c6a31e76ea2b56a3cc473,2022-03-28 11:24:52
231,104,n01877812,wallaby,marsupial,animal,1,r,70,-0.075,j,j,1,1116.2999999970198,285397,615c6a31e76ea2b56a3cc473,2022-03-28 11:24:52
232,448,n02843684,birdhouse,outdoor scene,nature,1,l,40,-0.15,f,f,1,1201.6000000014901,286599,615c6a31e76ea2b56a3cc473,2022-03-28 11:24:52
233,603,n03538406,horse_cart,vehicle,vehicle,1,r,200,0.25,f,f,1,1118.0,287718,615c6a31e76ea2b56a3cc473,2022-03-28 11:24:52
234,279,n02120079,Arctic_fox,wild dog,animal,1,l,200,0.25,j,j,1,673.2000000029802,288392,615c6a31e76ea2b56a3cc473,2022-03-28 11:24:52
235,925,n07584110,consomme,food,food,2,r,40,-0.15,j,j,1,858.6000000014901,289251,615c6a31e76ea2b56a3cc473,2022-03-28 11:24:52
236,698,n03877845,palace,building,outdoor,1,l,160,0.15,j,j,1,857.3999999985099,290109,615c6a31e76ea2b56a3cc473,2022-03-28 11:24:52
237,624,n03661043,library,building,outdoor,2,l,106,0.015,j,j,1,1278.3999999985099,291388,615c6a31e76ea2b56a3cc473,2022-03-28 11:24:52
238,501,n03045698,cloak,clothing,clothing,2,l,102,0.005,j,f,0,1097.8999999985099,292486,615c6a31e76ea2b56a3cc473,2022-03-28 11:24:52
239,56,n01734418,king_snake,snake,animal,1,l,106,0.015,j,j,1,685.6000000014901,293172,615c6a31e76ea2b56a3cc473,2022-03-28 11:24:52
240,896,n04553703,washbasin,container,indoor,1,l,20,-0.2,f,f,1,760.2000000029802,293933,615c6a31e76ea2b56a3cc473,2022-03-28 11:24:52
241,574,n03445777,golf_ball,ball,tool,0,r,180,0.2,f,f,1,1743.3999999985099,295675,615c6a31e76ea2b56a3cc473,2022-03-28 11:24:52
242,270,n02114548,white_wolf,wild dog,animal,1,l,110,0.025,j,f,0,872.2000000029802,296548,615c6a31e76ea2b56a3cc473,2022-03-28 11:24:52
243,50,n01698640,American_alligator,crocodile,animal,1,l,40,-0.15,f,f,1,952.4000000059605,297501,615c6a31e76ea2b56a3cc473,2022-03-28 11:24:52
244,904,n04589890,window_screen,decor,indoor,0,r,70,-0.075,j,f,0,605.6000000014901,298107,615c6a31e76ea2b56a3cc473,2022-03-28 11:24:52
245,661,n03777568,Model_T,vehicle,vehicle,0,l,102,0.005,j,f,0,380.80000000447035,298489,615c6a31e76ea2b56a3cc473,2022-03-28 11:24:52
246,530,n03196217,digital_clock,electronics,tool,2,l,60,-0.1,f,j,0,968.7999999970198,299458,615c6a31e76ea2b56a3cc473,2022-03-28 11:24:52
247,112,n01943899,conch,mollusk,animal,0,l,160,0.15,j,j,1,924.7999999970198,300383,615c6a31e76ea2b56a3cc473,2022-03-28 11:24:52
248,557,n03355925,flagpole,outdoor scene,outdoor,2,r,80,-0.05,j,j,1,1356.3999999985099,301740,615c6a31e76ea2b56a3cc473,2022-03-28 11:24:52
249,604,n03544143,hourglass,technology,tool,0,l,180,0.2,j,j,1,651.2999999970198,302392,615c6a31e76ea2b56a3cc473,2022-03-28 11:24:52
250,727,n03956157,planetarium,building,outdoor,2,l,20,-0.2,f,f,1,1019.8000000044703,303413,615c6a31e76ea2b56a3cc473,2022-03-28 11:24:52
251,860,n04443257,tobacco_shop,building,outdoor,1,r,98,-0.005,j,f,0,2381.10000000149,305794,615c6a31e76ea2b56a3cc473,2022-03-28 11:24:52
252,424,n02791270,barbershop,building,outdoor,1,l,180,0.2,j,f,0,2121.2000000029802,307916,615c6a31e76ea2b56a3cc473,2022-03-28 11:24:52
253,627,n03670208,limousine,vehicle,vehicle,2,r,94,-0.015,j,f,0,2068.39999999851,309985,615c6a31e76ea2b56a3cc473,2022-03-28 11:24:52
254,886,n04525305,vending_machine,technology,tool,1,l,40,-0.15,f,f,1,935.0999999940395,310921,615c6a31e76ea2b56a3cc473,2022-03-28 11:24:52
255,108,n01914609,sea_anemone,coral,animal,2,r,110,0.025,f,j,0,787.7000000029802,311709,615c6a31e76ea2b56a3cc473,2022-03-28 11:24:52
256,466,n02917067,bullet_train,train,vehicle,2,l,180,0.2,j,f,0,727.3999999985099,312437,615c6a31e76ea2b56a3cc473,2022-03-28 11:24:52
257,712,n03920288,Petri_dish,lab equipment,tool,0,r,40,-0.15,j,j,1,844.6000000014901,313282,615c6a31e76ea2b56a3cc473,2022-03-28 11:24:52
258,853,n04417672,thatch,building,outdoor,2,l,90,-0.025,f,j,0,1371.7999999970198,314654,615c6a31e76ea2b56a3cc473,2022-03-28 11:24:52
259,901,n04579145,whiskey_jug,container,indoor,0,l,120,0.05,j,j,1,794.8999999985099,315449,615c6a31e76ea2b56a3cc473,2022-03-28 11:24:52
260,195,n02096585,Boston_bull,dog,animal,0,l,80,-0.05,f,f,1,855.1000000014901,316305,615c6a31e76ea2b56a3cc473,2022-03-28 11:24:52
261,495,n03018349,china_cabinet,furniture,indoor,0,l,80,-0.05,f,j,0,523.6000000014901,316829,615c6a31e76ea2b56a3cc473,2022-03-28 11:24:52
262,11,n01531178,goldfinch,bird,animal,2,l,102,0.005,j,j,1,1135.2000000029802,317965,615c6a31e76ea2b56a3cc473,2022-03-28 11:24:52
263,881,n04515003,upright,instrument,tool,0,r,102,0.005,f,j,0,2187.2999999970198,321974,615c6a31e76ea2b56a3cc473,2022-03-28 11:24:52
264,259,n02112018,Pomeranian,dog,animal,1,r,110,0.025,f,j,0,354.6000000014901,322329,615c6a31e76ea2b56a3cc473,2022-03-28 11:24:52
265,468,n02930766,cab,vehicle,vehicle,0,r,160,0.15,f,j,0,277.30000000447035,322607,615c6a31e76ea2b56a3cc473,2022-03-28 11:24:52
266,884,n04523525,vault,container,indoor,0,l,70,-0.075,f,f,1,388.0,322996,615c6a31e76ea2b56a3cc473,2022-03-28 11:24:52
267,514,n03124043,cowboy_boot,clothing,clothing,1,r,94,-0.015,j,j,1,487.6000000014901,323484,615c6a31e76ea2b56a3cc473,2022-03-28 11:24:52
268,352,n02422699,impala,ungulate,animal,2,l,90,-0.025,f,f,1,708.8000000044703,324193,615c6a31e76ea2b56a3cc473,2022-03-28 11:24:52
269,864,n04461696,tow_truck,vehicle,vehicle,2,r,120,0.05,f,f,1,782.8000000044703,324976,615c6a31e76ea2b56a3cc473,2022-03-28 11:24:52
270,762,n04081281,restaurant,building,outdoor,1,r,180,0.2,f,f,1,699.6000000014901,325677,615c6a31e76ea2b56a3cc473,2022-03-28 11:24:52
271,888,n04532670,viaduct,outdoor scene,outdoor,0,l,160,0.15,j,j,1,806.2999999970198,326483,615c6a31e76ea2b56a3cc473,2022-03-28 11:24:52
272,356,n02441942,weasel,ferret,animal,1,r,120,0.05,f,f,1,777.5,327261,615c6a31e76ea2b56a3cc473,2022-03-28 11:24:52
273,229,n02105641,Old_English_sheepdog,dog,animal,2,r,101,0.0025,f,j,0,898.3000000044703,328161,615c6a31e76ea2b56a3cc473,2022-03-28 11:24:52
274,748,n04026417,purse,accessory,clothing,2,l,110,0.025,j,f,0,528.2999999970198,328690,615c6a31e76ea2b56a3cc473,2022-03-28 11:24:52
275,732,n03976467,Polaroid_camera,electronics,tool,1,l,180,0.2,j,j,1,1239.6000000014901,329930,615c6a31e76ea2b56a3cc473,2022-03-28 11:24:52
276,786,n04179913,sewing_machine,technology,tool,2,r,110,0.025,f,f,1,760.5,330691,615c6a31e76ea2b56a3cc473,2022-03-28 11:24:52
277,871,n04483307,trimaran,boat,vehicle,2,l,80,-0.05,f,j,0,778.5999999940395,331470,615c6a31e76ea2b56a3cc473,2022-03-28 11:24:52
278,966,n07892512,red_wine,food,food,1,r,130,0.075,f,f,1,453.40000000596046,331924,615c6a31e76ea2b56a3cc473,2022-03-28 11:24:52
279,455,n02877765,bottlecap,other,tool,1,l,20,-0.2,f,f,1,516.2999999970198,332440,615c6a31e76ea2b56a3cc473,2022-03-28 11:24:52
280,363,n02454379,armadillo,armadillo,animal,0,r,102,0.005,f,f,1,696.7000000029802,333137,615c6a31e76ea2b56a3cc473,2022-03-28 11:24:52
281,540,n03240683,drilling_platform,outdoor scene,outdoor,2,r,140,0.1,f,f,1,697.1000000014901,333835,615c6a31e76ea2b56a3cc473,2022-03-28 11:24:52
282,525,n03160309,dam,outdoor scene,outdoor,1,l,106,0.015,j,f,0,809.3999999985099,334645,615c6a31e76ea2b56a3cc473,2022-03-28 11:24:52
